trial,rt,acc,key,t_pre_stim,t_delay1,t_delay2,first_cat,second_cat,first_num,second_num,first_pic,second_pic,probe_cat,probe_pic,probe_validity,probe_num,correct_answer,rt_sliding_mean,cat_comparison,error_type
1.0,8.955,1.0,5.0,,,,2.0,4.0,5,5,2021.0,4028.0,2.0,1.0,1.0,5.0,5.0,,Different,correct
2.0,4.0616,1.0,1.0,,,,1.0,1.0,1,1,1012.0,1015.0,1.0,2.0,1.0,1.0,1.0,,Same,correct
3.0,3.4608,1.0,1.0,,,,3.0,2.0,1,1,3011.0,2018.0,2.0,2.0,1.0,1.0,1.0,,Different,correct
4.0,2.4619,0.0,1.0,,,,4.0,4.0,5,1,4029.0,4014.0,4.0,1.0,1.0,5.0,5.0,,Same,same category
5.0,10.5215,1.0,0.0,,,,2.0,2.0,5,1,2029.0,2011.0,3.0,2.0,0.0,0.0,0.0,,Same,correct
6.0,3.6918,1.0,0.0,,,,1.0,4.0,5,5,1029.0,4025.0,1.0,2.0,0.0,0.0,0.0,,Different,correct
7.0,1.8739,1.0,5.0,,,,3.0,4.0,5,1,3027.0,4018.0,3.0,1.0,1.0,5.0,5.0,,Different,correct
8.0,7.402,1.0,5.0,,,,3.0,4.0,5,1,3022.0,4016.0,3.0,1.0,1.0,5.0,5.0,,Different,correct
9.0,5.8353,1.0,0.0,,,,2.0,2.0,5,5,2024.0,2026.0,3.0,1.0,0.0,0.0,0.0,,Same,correct
10.0,4.6712,1.0,0.0,,,,3.0,2.0,1,5,3015.0,2029.0,2.0,1.0,0.0,0.0,0.0,5.2935,Different,correct
11.0,3.6317,1.0,5.0,,,,2.0,4.0,5,1,2021.0,4011.0,2.0,1.0,1.0,5.0,5.0,4.76117,Different,correct
12.0,1.7933,1.0,5.0,,,,1.0,1.0,5,5,1021.0,1026.0,1.0,2.0,1.0,5.0,5.0,4.53434,Same,correct
13.0,2.1876,1.0,1.0,,,,2.0,2.0,1,1,2014.0,2018.0,2.0,2.0,1.0,1.0,1.0,4.40702,Same,correct
14.0,3.2635,1.0,1.0,,,,3.0,2.0,1,1,3014.0,2015.0,2.0,2.0,1.0,1.0,1.0,4.4871799999999995,Different,correct
15.0,7.4872,1.0,1.0,,,,3.0,2.0,1,1,3015.0,2012.0,2.0,2.0,1.0,1.0,1.0,4.18375,Different,correct
16.0,2.0722,1.0,5.0,,,,3.0,3.0,5,5,3029.0,3023.0,3.0,2.0,1.0,5.0,5.0,4.02179,Same,correct
17.0,2.8856,0.0,1.0,,,,3.0,4.0,5,1,3028.0,4011.0,4.0,1.0,0.0,0.0,0.0,4.12296,Different,swap error
18.0,16.6134,0.0,5.0,,,,4.0,4.0,1,5,4011.0,4024.0,4.0,1.0,1.0,1.0,1.0,5.0441,Same,same category
19.0,46.1802,0.0,0.0,,,,1.0,3.0,5,1,1023.0,3017.0,1.0,1.0,1.0,5.0,5.0,9.07859,Different,swap error
20.0,16.4313,1.0,5.0,,,,2.0,1.0,5,5,2027.0,1021.0,1.0,2.0,1.0,5.0,5.0,10.2546,Different,correct
21.0,2.1805,1.0,5.0,,,,1.0,1.0,5,5,1027.0,1028.0,1.0,2.0,1.0,5.0,5.0,10.109480000000001,Same,correct
22.0,21.0131,1.0,0.0,,,,3.0,4.0,5,1,3021.0,4016.0,4.0,1.0,0.0,0.0,0.0,12.03146,Different,correct
23.0,13.7493,1.0,5.0,,,,1.0,4.0,5,5,1028.0,4022.0,1.0,1.0,1.0,5.0,5.0,13.187629999999999,Different,correct
24.0,5.9454,1.0,0.0,,,,1.0,4.0,1,1,1015.0,4014.0,4.0,1.0,0.0,0.0,0.0,13.45582,Different,correct
25.0,20.1401,1.0,0.0,,,,3.0,1.0,5,1,3021.0,1019.0,3.0,2.0,0.0,0.0,0.0,14.721110000000001,Different,correct
26.0,82.5783,1.0,1.0,,,,3.0,3.0,5,1,3024.0,3018.0,3.0,2.0,1.0,1.0,1.0,22.77172,Same,correct
27.0,15.3148,1.0,1.0,,,,2.0,3.0,5,1,2026.0,3015.0,3.0,2.0,1.0,1.0,1.0,24.01464,Different,correct
28.0,22.555,1.0,1.0,,,,1.0,1.0,1,1,1012.0,1017.0,1.0,1.0,1.0,1.0,1.0,24.6088,Same,correct
29.0,11.1473,1.0,0.0,,,,4.0,2.0,1,5,4013.0,2029.0,2.0,1.0,0.0,0.0,0.0,21.105510000000002,Different,correct
30.0,3.6287,1.0,1.0,,,,4.0,2.0,1,1,4017.0,2013.0,2.0,2.0,1.0,1.0,1.0,19.82525,Different,correct
31.0,11.2288,0.0,0.0,,,,2.0,4.0,5,1,2028.0,4017.0,4.0,2.0,1.0,1.0,1.0,20.730079999999997,Different,swap error
32.0,27.8653,1.0,5.0,,,,3.0,4.0,5,1,3026.0,4019.0,3.0,1.0,1.0,5.0,5.0,21.4153,Different,correct
33.0,4.6043,0.0,0.0,,,,2.0,4.0,5,1,2023.0,4011.0,4.0,2.0,1.0,1.0,1.0,20.5008,Different,swap error
34.0,13.9905,1.0,5.0,,,,2.0,4.0,5,5,2022.0,4028.0,4.0,2.0,1.0,5.0,5.0,21.30531,Different,correct
35.0,13.9273,0.0,1.0,,,,2.0,4.0,1,1,2013.0,4017.0,2.0,2.0,0.0,0.0,0.0,20.68403,Different,swap error
36.0,3.5633,1.0,1.0,,,,3.0,3.0,1,1,3016.0,3011.0,3.0,1.0,1.0,1.0,1.0,12.78253,Same,correct
37.0,6.4836,1.0,0.0,,,,1.0,3.0,1,5,1015.0,3029.0,1.0,2.0,0.0,0.0,0.0,11.89941,Different,correct
38.0,23.7235,1.0,1.0,,,,1.0,1.0,1,1,1015.0,1014.0,1.0,2.0,1.0,1.0,1.0,12.016259999999999,Same,correct
39.0,4.2815,1.0,5.0,,,,2.0,3.0,1,5,2018.0,3025.0,3.0,2.0,1.0,5.0,5.0,11.32968,Different,correct
40.0,99.2815,1.0,5.0,,,,3.0,1.0,5,5,3029.0,1028.0,3.0,1.0,1.0,5.0,5.0,20.89496,Different,correct
41.0,11.4224,1.0,0.0,,,,4.0,2.0,1,5,4018.0,2022.0,2.0,1.0,0.0,0.0,0.0,20.91432,Different,correct
42.0,23.2094,1.0,5.0,,,,2.0,3.0,5,5,2028.0,3029.0,2.0,1.0,1.0,5.0,5.0,20.44873,Different,correct
43.0,3.8023,1.0,5.0,,,,2.0,1.0,5,5,2028.0,1022.0,1.0,2.0,1.0,5.0,5.0,20.36853,Different,correct
44.0,10.7963,1.0,5.0,,,,4.0,1.0,5,1,4027.0,1014.0,4.0,1.0,1.0,5.0,5.0,20.04911,Different,correct
45.0,183.2066,1.0,0.0,,,,4.0,2.0,1,5,4017.0,2028.0,4.0,2.0,0.0,0.0,0.0,36.97704,Different,correct
46.0,9.8953,1.0,5.0,,,,1.0,1.0,5,5,1023.0,1029.0,1.0,1.0,1.0,5.0,5.0,37.61024,Same,correct
47.0,5.9131,1.0,5.0,,,,4.0,3.0,5,5,4021.0,3021.0,3.0,2.0,1.0,5.0,5.0,37.55319,Different,correct
48.0,4.272,0.0,5.0,,,,1.0,4.0,5,1,1022.0,4014.0,1.0,2.0,0.0,0.0,0.0,35.60804,Different,swap error
49.0,8.5593,0.0,5.0,,,,2.0,3.0,5,5,2025.0,3027.0,2.0,2.0,0.0,0.0,0.0,36.03582,Different,swap error
50.0,2.9012,1.0,5.0,,,,4.0,4.0,5,5,4022.0,4024.0,4.0,1.0,1.0,5.0,5.0,26.397789999999997,Same,correct
51.0,12.1606,1.0,5.0,,,,1.0,2.0,5,5,1025.0,2028.0,2.0,2.0,1.0,5.0,5.0,26.47161,Different,correct
52.0,2.6194,1.0,1.0,,,,4.0,4.0,1,1,4012.0,4011.0,4.0,2.0,1.0,1.0,1.0,24.41261,Same,correct
53.0,8.8065,0.0,1.0,,,,4.0,3.0,1,1,4014.0,3017.0,4.0,2.0,0.0,0.0,0.0,24.91303,Different,swap error
54.0,12.7599,0.0,1.0,,,,4.0,3.0,1,5,4017.0,3022.0,3.0,2.0,1.0,5.0,5.0,25.10939,Different,other error
55.0,5.1436,0.0,5.0,,,,3.0,2.0,5,1,3022.0,2013.0,3.0,2.0,0.0,0.0,0.0,7.30309,Different,swap error
56.0,2.7691,1.0,0.0,,,,1.0,1.0,1,1,1011.0,1012.0,4.0,1.0,0.0,0.0,0.0,6.590470000000001,Same,correct
57.0,16.3014,1.0,1.0,,,,3.0,4.0,1,1,3019.0,4015.0,3.0,1.0,1.0,1.0,1.0,7.629300000000001,Different,correct
58.0,4.3346,0.0,5.0,,,,1.0,2.0,5,1,1022.0,2013.0,1.0,2.0,0.0,0.0,0.0,7.63556,Different,swap error
59.0,6.8976,0.0,1.0,,,,4.0,3.0,1,1,4014.0,3014.0,3.0,1.0,0.0,0.0,0.0,7.46939,Different,swap error
60.0,5.5788,0.0,1.0,,,,4.0,2.0,1,1,4016.0,2013.0,2.0,1.0,0.0,0.0,0.0,7.73715,Different,swap error
61.0,5.8432,0.0,1.0,,,,3.0,4.0,1,1,3012.0,4014.0,3.0,2.0,0.0,0.0,0.0,7.105410000000001,Different,swap error
62.0,8.2597,1.0,5.0,,,,3.0,1.0,5,5,3021.0,1025.0,1.0,2.0,1.0,5.0,5.0,7.66944,Different,correct
63.0,13.2019,1.0,0.0,,,,2.0,2.0,1,5,2011.0,2029.0,3.0,2.0,0.0,0.0,0.0,8.108979999999999,Same,correct
64.0,3.3689,0.0,0.0,,,,2.0,4.0,5,1,2028.0,4011.0,4.0,2.0,1.0,1.0,1.0,7.169880000000001,Different,swap error
65.0,39.6491,1.0,5.0,,,,1.0,3.0,5,5,1023.0,3027.0,3.0,2.0,1.0,5.0,5.0,10.62043,Different,correct
66.0,2.7982,1.0,0.0,,,,1.0,3.0,5,5,1027.0,3024.0,1.0,2.0,0.0,0.0,0.0,10.623339999999999,Different,correct
67.0,10.3097,1.0,0.0,,,,3.0,4.0,1,5,3013.0,4026.0,4.0,1.0,0.0,0.0,0.0,10.02417,Different,correct
68.0,7.6276,1.0,1.0,,,,3.0,1.0,1,1,3015.0,1011.0,1.0,2.0,1.0,1.0,1.0,10.35347,Different,correct
69.0,15.3135,1.0,0.0,,,,1.0,2.0,5,1,1027.0,2015.0,2.0,1.0,0.0,0.0,0.0,11.195060000000002,Different,correct
70.0,6.5834,1.0,1.0,,,,1.0,3.0,1,1,1016.0,3017.0,1.0,1.0,1.0,1.0,1.0,11.29552,Different,correct
71.0,1.7394,1.0,5.0,,,,4.0,2.0,1,5,4014.0,2027.0,2.0,2.0,1.0,5.0,5.0,10.885139999999998,Different,correct
72.0,5.0834,0.0,0.0,,,,4.0,1.0,5,5,4027.0,1026.0,1.0,2.0,1.0,5.0,5.0,10.56751,Different,swap error
73.0,1.9989,1.0,5.0,,,,1.0,2.0,5,5,1029.0,2025.0,2.0,2.0,1.0,5.0,5.0,9.44721,Different,correct
74.0,3.5598,1.0,0.0,,,,2.0,3.0,1,5,2016.0,3027.0,3.0,1.0,0.0,0.0,0.0,9.466299999999999,Different,correct
75.0,1.7867,1.0,5.0,,,,4.0,4.0,5,5,4024.0,4022.0,4.0,1.0,1.0,5.0,5.0,5.68006,Same,correct
76.0,2.7387,1.0,0.0,,,,4.0,2.0,1,5,4016.0,2027.0,4.0,2.0,0.0,0.0,0.0,5.67411,Different,correct
77.0,3.212,1.0,5.0,,,,1.0,4.0,1,5,1012.0,4028.0,4.0,2.0,1.0,5.0,5.0,4.96434,Different,correct
78.0,5.4841,1.0,5.0,,,,4.0,3.0,5,5,4027.0,3028.0,4.0,1.0,1.0,5.0,5.0,4.7499899999999995,Different,correct
79.0,5.5412,1.0,0.0,,,,4.0,3.0,1,5,4014.0,3029.0,3.0,1.0,0.0,0.0,0.0,3.7727600000000003,Different,correct
80.0,4.2995,1.0,0.0,,,,2.0,3.0,1,5,2014.0,3023.0,2.0,2.0,0.0,0.0,0.0,3.54437,Different,correct
81.0,3.8353,1.0,0.0,,,,3.0,4.0,5,5,3028.0,4024.0,3.0,2.0,0.0,0.0,0.0,3.7539600000000006,Different,correct
82.0,2.4859,1.0,0.0,,,,1.0,1.0,5,5,1021.0,1022.0,4.0,1.0,0.0,0.0,0.0,3.49421,Same,correct
83.0,2.1943,1.0,5.0,,,,2.0,2.0,1,5,2011.0,2021.0,2.0,2.0,1.0,5.0,5.0,3.5137500000000004,Same,correct
84.0,10.8009,0.0,1.0,,,,2.0,3.0,5,1,2026.0,3011.0,2.0,1.0,1.0,5.0,5.0,4.23786,Different,other error
85.0,2.7487,1.0,0.0,,,,4.0,1.0,1,5,4018.0,1025.0,1.0,1.0,0.0,0.0,0.0,4.33406,Different,correct
86.0,2.574,1.0,5.0,,,,2.0,3.0,5,1,2029.0,3018.0,2.0,1.0,1.0,5.0,5.0,4.317590000000001,Different,correct
87.0,2.0152,1.0,1.0,,,,3.0,4.0,1,1,3012.0,4015.0,4.0,2.0,1.0,1.0,1.0,4.19791,Different,correct
88.0,3.8832,1.0,1.0,,,,3.0,3.0,5,1,3024.0,3014.0,3.0,2.0,1.0,1.0,1.0,4.037820000000001,Same,correct
89.0,2.0396,1.0,0.0,,,,1.0,3.0,1,1,1018.0,3013.0,1.0,2.0,0.0,0.0,0.0,3.6876599999999997,Different,correct
90.0,4.0358,1.0,0.0,,,,3.0,3.0,1,1,3013.0,3019.0,2.0,1.0,0.0,0.0,0.0,3.66129,Same,correct
91.0,3.6907,1.0,0.0,,,,2.0,1.0,1,5,2018.0,1026.0,2.0,2.0,0.0,0.0,0.0,3.64683,Different,correct
92.0,3.1255,1.0,5.0,,,,3.0,2.0,1,5,3014.0,2024.0,2.0,2.0,1.0,5.0,5.0,3.7107900000000003,Different,correct
93.0,2.7142,1.0,0.0,,,,4.0,1.0,5,5,4026.0,1028.0,4.0,2.0,0.0,0.0,0.0,3.7627800000000002,Different,correct
94.0,2.4279,1.0,1.0,,,,2.0,1.0,5,1,2022.0,1014.0,1.0,2.0,1.0,1.0,1.0,2.92548,Different,correct
95.0,3.0939,1.0,0.0,,,,3.0,2.0,1,1,3015.0,2012.0,3.0,2.0,0.0,0.0,0.0,2.96,Different,correct
96.0,2.4639,1.0,1.0,,,,1.0,3.0,1,5,1018.0,3026.0,1.0,1.0,1.0,1.0,1.0,2.94899,Different,correct
97.0,2.2774,1.0,1.0,,,,2.0,1.0,1,5,2012.0,1022.0,2.0,1.0,1.0,1.0,1.0,2.9752099999999997,Different,correct
98.0,2.8058,1.0,1.0,,,,4.0,4.0,1,1,4018.0,4016.0,4.0,1.0,1.0,1.0,1.0,2.86747,Same,correct
99.0,2.507,1.0,5.0,,,,2.0,2.0,1,5,2012.0,2027.0,2.0,2.0,1.0,5.0,5.0,2.9142099999999997,Same,correct
100.0,2.3737,1.0,5.0,,,,2.0,1.0,5,5,2023.0,1024.0,2.0,1.0,1.0,5.0,5.0,2.748,Different,correct
101.0,4.2764,1.0,1.0,,,,3.0,1.0,5,1,3024.0,1019.0,1.0,2.0,1.0,1.0,1.0,2.80657,Different,correct
102.0,1.8512,1.0,5.0,,,,3.0,1.0,1,5,3016.0,1021.0,1.0,2.0,1.0,5.0,5.0,2.67914,Different,correct
103.0,2.153,1.0,5.0,,,,2.0,3.0,1,5,2015.0,3027.0,3.0,2.0,1.0,5.0,5.0,2.62302,Different,correct
104.0,2.335,1.0,1.0,,,,1.0,2.0,1,1,1018.0,2016.0,2.0,2.0,1.0,1.0,1.0,2.6137300000000003,Different,correct
105.0,19.5679,0.0,0.0,,,,4.0,3.0,1,5,4011.0,3027.0,4.0,1.0,1.0,1.0,1.0,4.26113,Different,swap error
106.0,5.3329,1.0,0.0,,,,2.0,1.0,5,1,2026.0,1016.0,2.0,2.0,0.0,0.0,0.0,4.54803,Different,correct
107.0,8.0919,1.0,5.0,,,,4.0,4.0,5,5,4025.0,4024.0,4.0,1.0,1.0,5.0,5.0,5.12948,Same,correct
108.0,2.8858,1.0,1.0,,,,4.0,4.0,1,1,4011.0,4012.0,4.0,2.0,1.0,1.0,1.0,5.137480000000001,Same,correct
109.0,3.6265,1.0,5.0,,,,2.0,2.0,5,1,2022.0,2012.0,2.0,1.0,1.0,5.0,5.0,5.249430000000001,Same,correct
110.0,3.2753,1.0,0.0,,,,2.0,4.0,1,5,2015.0,4021.0,4.0,1.0,0.0,0.0,0.0,5.33959,Different,correct
111.0,2.2785,1.0,1.0,,,,1.0,4.0,1,1,1013.0,4018.0,1.0,1.0,1.0,1.0,1.0,5.1398,Different,correct
112.0,3.1093,1.0,5.0,,,,1.0,1.0,5,5,1023.0,1025.0,1.0,2.0,1.0,5.0,5.0,5.265610000000001,Same,correct
113.0,4.0731,1.0,0.0,,,,1.0,3.0,5,1,1025.0,3012.0,1.0,2.0,0.0,0.0,0.0,5.45762,Different,correct
114.0,3.3735,1.0,1.0,,,,1.0,2.0,1,1,1013.0,2019.0,1.0,1.0,1.0,1.0,1.0,5.561470000000001,Different,correct
115.0,2.0176,1.0,1.0,,,,2.0,4.0,1,5,2011.0,4024.0,2.0,1.0,1.0,1.0,1.0,3.8064400000000007,Different,correct
116.0,25.8194,1.0,1.0,,,,4.0,1.0,1,1,4016.0,1011.0,4.0,1.0,1.0,1.0,1.0,5.855090000000001,Different,correct
117.0,2.5989,1.0,5.0,,,,3.0,2.0,5,1,3028.0,2017.0,3.0,1.0,1.0,5.0,5.0,5.30579,Different,correct
118.0,3.7499,1.0,0.0,,,,1.0,1.0,1,5,1018.0,1026.0,4.0,1.0,0.0,0.0,0.0,5.392200000000001,Same,correct
119.0,3.5133,1.0,5.0,,,,2.0,1.0,1,5,2011.0,1023.0,1.0,2.0,1.0,5.0,5.0,5.38088,Different,correct
120.0,5.2794,1.0,5.0,,,,2.0,3.0,5,5,2026.0,3022.0,3.0,2.0,1.0,5.0,5.0,5.581290000000001,Different,correct
121.0,2.6814,1.0,5.0,,,,1.0,4.0,5,5,1029.0,4025.0,4.0,2.0,1.0,5.0,5.0,5.62158,Different,correct
122.0,10.5697,1.0,5.0,,,,3.0,3.0,5,1,3025.0,3011.0,3.0,1.0,1.0,5.0,5.0,6.3676200000000005,Same,correct
123.0,2.4477,1.0,5.0,,,,4.0,3.0,5,1,4025.0,3011.0,4.0,1.0,1.0,5.0,5.0,6.205080000000001,Different,correct
124.0,4.1284,1.0,0.0,,,,4.0,1.0,1,1,4015.0,1018.0,1.0,1.0,0.0,0.0,0.0,6.28057,Different,correct
125.0,67.5248,1.0,1.0,,,,3.0,3.0,1,5,3013.0,3023.0,3.0,1.0,1.0,1.0,1.0,12.831290000000001,Same,correct
126.0,2.3736,1.0,5.0,,,,4.0,4.0,5,5,4023.0,4022.0,4.0,2.0,1.0,5.0,5.0,10.48671,Same,correct
127.0,2.4609,1.0,1.0,,,,3.0,4.0,1,1,3013.0,4014.0,4.0,2.0,1.0,1.0,1.0,10.472910000000002,Different,correct
128.0,3.7872,1.0,1.0,,,,1.0,2.0,1,5,1012.0,2025.0,1.0,1.0,1.0,1.0,1.0,10.476640000000002,Different,correct
129.0,3.2427,1.0,1.0,,,,4.0,1.0,1,5,4011.0,1026.0,4.0,1.0,1.0,1.0,1.0,10.449580000000001,Different,correct
130.0,2.6587,1.0,5.0,,,,2.0,3.0,5,1,2029.0,3015.0,2.0,1.0,1.0,5.0,5.0,10.18751,Different,correct
131.0,5.1511,1.0,0.0,,,,4.0,2.0,5,5,4022.0,2023.0,4.0,2.0,0.0,0.0,0.0,10.43448,Different,correct
132.0,3.0833,1.0,0.0,,,,3.0,3.0,5,1,3026.0,3012.0,2.0,1.0,0.0,0.0,0.0,9.68584,Same,correct
133.0,2.9637,1.0,1.0,,,,3.0,2.0,5,1,3023.0,2013.0,2.0,2.0,1.0,1.0,1.0,9.737440000000001,Different,correct
134.0,2.7305,1.0,0.0,,,,2.0,2.0,1,1,2013.0,2017.0,3.0,1.0,0.0,0.0,0.0,9.597650000000002,Same,correct
135.0,2.0709,0.0,1.0,,,,1.0,4.0,1,1,1018.0,4018.0,1.0,1.0,1.0,5.0,5.0,3.0522600000000013,Different,other error
136.0,2.9239,1.0,1.0,,,,3.0,4.0,1,1,3012.0,4011.0,4.0,2.0,1.0,1.0,1.0,3.1072900000000017,Different,correct
137.0,2.4087,1.0,5.0,,,,2.0,1.0,5,5,2021.0,1027.0,1.0,2.0,1.0,5.0,5.0,3.1020700000000017,Different,correct
138.0,1.9669,1.0,1.0,,,,4.0,4.0,5,1,4029.0,4017.0,4.0,2.0,1.0,1.0,1.0,2.920040000000001,Same,correct
139.0,4.5254,1.0,0.0,,,,2.0,1.0,1,1,2018.0,1016.0,2.0,2.0,0.0,0.0,0.0,3.0483100000000016,Different,correct
140.0,2.0676,1.0,5.0,,,,2.0,3.0,1,5,2018.0,3021.0,3.0,2.0,1.0,5.0,5.0,2.989200000000001,Different,correct
141.0,5.9743,1.0,0.0,,,,4.0,1.0,1,5,4012.0,1029.0,1.0,1.0,0.0,0.0,0.0,3.071520000000002,Different,correct
142.0,2.7658,0.0,1.0,,,,2.0,1.0,1,1,2016.0,1013.0,2.0,2.0,0.0,0.0,0.0,3.0397700000000016,Different,swap error
143.0,2.7267,1.0,1.0,,,,2.0,3.0,5,1,2022.0,3017.0,3.0,2.0,1.0,1.0,1.0,3.016070000000002,Different,correct
144.0,4.6329,1.0,0.0,,,,4.0,3.0,5,1,4022.0,3016.0,3.0,1.0,0.0,0.0,0.0,3.206310000000002,Different,correct
145.0,3.5385,1.0,0.0,,,,1.0,4.0,1,5,1014.0,4028.0,4.0,1.0,0.0,0.0,0.0,3.3530700000000015,Different,correct
146.0,2.7166,0.0,5.0,,,,4.0,3.0,5,1,4026.0,3014.0,4.0,2.0,0.0,0.0,0.0,3.332340000000001,Different,swap error
147.0,2.2079,1.0,1.0,,,,4.0,3.0,1,5,4011.0,3021.0,4.0,1.0,1.0,1.0,1.0,3.312260000000001,Different,correct
148.0,12.3716,0.0,5.0,,,,3.0,4.0,5,5,3029.0,4022.0,3.0,2.0,0.0,0.0,0.0,4.352730000000002,Different,swap error
149.0,3.9393,1.0,0.0,,,,2.0,4.0,5,5,2029.0,4025.0,2.0,2.0,0.0,0.0,0.0,4.294120000000002,Different,correct
150.0,40.7674,0.0,1.0,,,,4.0,1.0,1,1,4013.0,1011.0,1.0,1.0,0.0,0.0,0.0,8.164100000000001,Different,swap error
151.0,22.531,1.0,0.0,,,,1.0,4.0,5,1,1028.0,4016.0,4.0,1.0,0.0,0.0,0.0,9.819770000000002,Different,correct
152.0,2.5618,1.0,1.0,,,,1.0,3.0,1,1,1016.0,3011.0,1.0,1.0,1.0,1.0,1.0,9.799370000000001,Different,correct
153.0,2.9619,1.0,0.0,,,,1.0,2.0,5,1,1027.0,2014.0,2.0,1.0,0.0,0.0,0.0,9.822890000000003,Different,correct
154.0,2.5584,1.0,1.0,,,,2.0,1.0,1,1,2016.0,1011.0,2.0,1.0,1.0,1.0,1.0,9.615440000000003,Different,correct
155.0,10.4187,1.0,1.0,,,,4.0,1.0,5,1,4022.0,1013.0,1.0,2.0,1.0,1.0,1.0,10.303460000000001,Different,correct
156.0,4.7161,1.0,1.0,,,,3.0,4.0,1,5,3017.0,4029.0,3.0,1.0,1.0,1.0,1.0,10.503410000000002,Different,correct
157.0,1.939,1.0,5.0,,,,1.0,2.0,5,5,1023.0,2029.0,2.0,2.0,1.0,5.0,5.0,10.476520000000002,Different,correct
158.0,2.6183,1.0,0.0,,,,4.0,2.0,1,1,4014.0,2018.0,4.0,2.0,0.0,0.0,0.0,9.501190000000003,Different,correct
159.0,2.1436,1.0,0.0,,,,2.0,4.0,5,1,2022.0,4017.0,4.0,1.0,0.0,0.0,0.0,9.321620000000001,Different,correct
160.0,1.8394,1.0,1.0,,,,2.0,2.0,1,1,2012.0,2018.0,2.0,1.0,1.0,1.0,1.0,5.428820000000001,Same,correct
161.0,4.0575,1.0,0.0,,,,1.0,4.0,1,1,1011.0,4013.0,4.0,1.0,0.0,0.0,0.0,3.5814700000000017,Different,correct
162.0,3.1688,0.0,5.0,,,,2.0,1.0,1,5,2011.0,1021.0,2.0,2.0,0.0,0.0,0.0,3.6421700000000015,Different,other error
163.0,4.9617,1.0,5.0,,,,4.0,3.0,5,5,4024.0,3027.0,4.0,1.0,1.0,5.0,5.0,3.8421500000000015,Different,correct
164.0,4.2497,1.0,1.0,,,,3.0,3.0,1,1,3017.0,3011.0,3.0,1.0,1.0,1.0,1.0,4.011280000000001,Same,correct
165.0,2.1084,1.0,1.0,,,,1.0,3.0,5,1,1021.0,3019.0,3.0,2.0,1.0,1.0,1.0,3.180250000000002,Different,correct
166.0,2.8264,1.0,5.0,,,,3.0,2.0,5,5,3023.0,2023.0,3.0,1.0,1.0,5.0,5.0,2.9912800000000015,Different,correct
167.0,1.9432,1.0,5.0,,,,1.0,1.0,5,5,1025.0,1023.0,1.0,1.0,1.0,5.0,5.0,2.9917000000000016,Same,correct
168.0,2.939,1.0,0.0,,,,2.0,4.0,1,1,2012.0,4014.0,4.0,1.0,0.0,0.0,0.0,3.0237700000000016,Different,correct
169.0,3.8187,1.0,1.0,,,,3.0,2.0,5,1,3024.0,2016.0,2.0,2.0,1.0,1.0,1.0,3.1912800000000017,Different,correct
170.0,2.5197,1.0,0.0,,,,3.0,3.0,1,5,3017.0,3028.0,2.0,1.0,0.0,0.0,0.0,3.2593100000000015,Same,correct
171.0,1.7203,1.0,5.0,,,,3.0,1.0,5,5,3029.0,1027.0,1.0,2.0,1.0,5.0,5.0,3.0255900000000016,Different,correct
172.0,5.421,1.0,5.0,,,,1.0,3.0,5,5,1028.0,3027.0,3.0,2.0,1.0,5.0,5.0,3.2508100000000013,Different,correct
173.0,1.8515,1.0,1.0,,,,4.0,1.0,1,5,4012.0,1028.0,4.0,1.0,1.0,1.0,1.0,2.9397900000000012,Different,correct
174.0,3.0911,1.0,0.0,,,,3.0,1.0,1,1,3015.0,1014.0,3.0,2.0,0.0,0.0,0.0,2.8239300000000016,Different,correct
175.0,2.8445,1.0,1.0,,,,1.0,4.0,1,5,1012.0,4022.0,1.0,1.0,1.0,1.0,1.0,2.8975400000000016,Different,correct
176.0,2.101,1.0,1.0,,,,4.0,4.0,1,5,4018.0,4023.0,4.0,1.0,1.0,1.0,1.0,2.8250000000000015,Same,correct
177.0,1.985,1.0,1.0,,,,3.0,2.0,1,5,3016.0,2025.0,3.0,1.0,1.0,1.0,1.0,2.829180000000002,Different,correct
178.0,12.0163,1.0,5.0,,,,2.0,2.0,5,1,2028.0,2014.0,2.0,1.0,1.0,5.0,5.0,3.7369100000000017,Same,correct
179.0,2.6931,1.0,5.0,,,,4.0,4.0,5,5,4026.0,4025.0,4.0,2.0,1.0,5.0,5.0,3.624350000000002,Same,correct
180.0,3.266,1.0,1.0,,,,2.0,4.0,1,1,2017.0,4011.0,2.0,1.0,1.0,1.0,1.0,3.6989800000000015,Different,correct
181.0,1.8975,1.0,5.0,,,,2.0,2.0,1,5,2012.0,2024.0,2.0,2.0,1.0,5.0,5.0,3.7167000000000017,Same,correct
182.0,3.3698,1.0,0.0,,,,4.0,1.0,5,1,4021.0,1012.0,4.0,2.0,0.0,0.0,0.0,3.5115800000000013,Different,correct
183.0,5.0033,1.0,0.0,,,,1.0,2.0,5,5,1023.0,2028.0,1.0,2.0,0.0,0.0,0.0,3.8267600000000015,Different,correct
184.0,2.2811,1.0,0.0,,,,1.0,1.0,5,1,1029.0,1016.0,4.0,2.0,0.0,0.0,0.0,3.7457600000000015,Same,correct
185.0,9.0045,0.0,5.0,,,,4.0,1.0,5,1,4027.0,1019.0,1.0,1.0,0.0,0.0,0.0,4.361760000000001,Different,other error
186.0,5.2299,1.0,5.0,,,,3.0,1.0,1,5,3012.0,1028.0,1.0,2.0,1.0,5.0,5.0,4.6746500000000015,Different,correct
187.0,2.4285,1.0,5.0,,,,2.0,1.0,5,1,2023.0,1018.0,2.0,1.0,1.0,5.0,5.0,4.719000000000001,Different,correct
188.0,2.381,1.0,0.0,,,,3.0,1.0,5,5,3021.0,1024.0,1.0,1.0,0.0,0.0,0.0,3.755470000000001,Different,correct
189.0,5.4912,1.0,1.0,,,,3.0,2.0,1,1,3018.0,2019.0,2.0,2.0,1.0,1.0,1.0,4.035280000000001,Different,correct
190.0,4.2878,1.0,5.0,,,,1.0,4.0,5,1,1022.0,4012.0,1.0,1.0,1.0,5.0,5.0,4.137460000000002,Different,correct
191.0,3.4646,1.0,5.0,,,,1.0,1.0,1,5,1019.0,1029.0,1.0,2.0,1.0,5.0,5.0,4.294170000000001,Same,correct
192.0,3.22,1.0,0.0,,,,2.0,2.0,1,5,2017.0,2027.0,3.0,2.0,0.0,0.0,0.0,4.279190000000002,Same,correct
193.0,9.7071,1.0,1.0,,,,4.0,3.0,5,1,4022.0,3018.0,3.0,2.0,1.0,1.0,1.0,4.749570000000001,Different,correct
194.0,4.4157,1.0,5.0,,,,3.0,3.0,5,5,3026.0,3027.0,3.0,1.0,1.0,5.0,5.0,4.963030000000002,Same,correct
195.0,2.7429,1.0,5.0,,,,4.0,2.0,5,1,4023.0,2019.0,4.0,1.0,1.0,5.0,5.0,4.336870000000002,Different,correct
196.0,1.9686,1.0,1.0,,,,1.0,2.0,1,5,1011.0,2026.0,1.0,1.0,1.0,1.0,1.0,4.010740000000001,Different,correct
197.0,1.9378,1.0,1.0,,,,3.0,2.0,5,1,3025.0,2019.0,2.0,2.0,1.0,1.0,1.0,3.9616700000000016,Different,correct
198.0,3.4864,1.0,1.0,,,,3.0,3.0,5,1,3028.0,3019.0,3.0,2.0,1.0,1.0,1.0,4.072210000000002,Same,correct
199.0,1.7794,1.0,1.0,,,,2.0,1.0,1,1,2018.0,1017.0,1.0,2.0,1.0,1.0,1.0,3.7010300000000016,Different,correct
200.0,2.0059,1.0,5.0,,,,4.0,4.0,1,5,4018.0,4029.0,4.0,2.0,1.0,5.0,5.0,3.4728400000000015,Same,correct
201.0,2.2487,1.0,1.0,,,,4.0,4.0,1,1,4019.0,4012.0,4.0,1.0,1.0,1.0,1.0,3.3512500000000016,Same,correct
202.0,4.4563,1.0,5.0,,,,2.0,3.0,5,5,2026.0,3028.0,2.0,1.0,1.0,5.0,5.0,3.4748800000000015,Different,correct
203.0,2.9824,1.0,5.0,,,,1.0,4.0,5,5,1023.0,4024.0,4.0,2.0,1.0,5.0,5.0,2.802410000000001,Different,correct
204.0,2.7284,1.0,5.0,,,,2.0,4.0,5,5,2029.0,4026.0,2.0,1.0,1.0,5.0,5.0,2.6336800000000014,Different,correct
205.0,14.455,1.0,0.0,,,,4.0,1.0,1,1,4017.0,1019.0,1.0,1.0,0.0,0.0,0.0,3.8048900000000017,Different,correct
206.0,1.9842,1.0,5.0,,,,1.0,3.0,1,5,1017.0,3025.0,3.0,2.0,1.0,5.0,5.0,3.8064500000000017,Different,correct
207.0,4.1976,1.0,0.0,,,,2.0,1.0,5,5,2021.0,1029.0,1.0,1.0,0.0,0.0,0.0,4.0324300000000015,Different,correct
208.0,2.6777,1.0,5.0,,,,2.0,3.0,1,5,2012.0,3028.0,3.0,2.0,1.0,5.0,5.0,3.9515600000000015,Different,correct
209.0,2.0772,1.0,1.0,,,,2.0,1.0,1,5,2019.0,1029.0,2.0,1.0,1.0,1.0,1.0,3.9813400000000017,Different,correct
210.0,1.894,1.0,5.0,,,,3.0,1.0,5,5,3029.0,1024.0,1.0,2.0,1.0,5.0,5.0,3.9701500000000016,Different,correct
211.0,6.5006,1.0,5.0,,,,3.0,4.0,5,5,3028.0,4029.0,3.0,1.0,1.0,5.0,5.0,4.395340000000002,Different,correct
212.0,1.8773,1.0,1.0,,,,4.0,2.0,5,1,4024.0,2014.0,2.0,2.0,1.0,1.0,1.0,4.137440000000002,Different,correct
213.0,1.9531,1.0,1.0,,,,4.0,1.0,5,1,4022.0,1014.0,1.0,2.0,1.0,1.0,1.0,4.034510000000002,Different,correct
214.0,5.7858,1.0,0.0,,,,4.0,2.0,5,1,4021.0,2012.0,2.0,1.0,0.0,0.0,0.0,4.340250000000002,Different,correct
215.0,2.9978,1.0,1.0,,,,1.0,2.0,1,5,1015.0,2022.0,1.0,1.0,1.0,1.0,1.0,3.1945300000000016,Different,correct
216.0,2.6655,1.0,0.0,,,,1.0,3.0,1,1,1011.0,3018.0,1.0,2.0,0.0,0.0,0.0,3.2626600000000017,Different,correct
217.0,2.371,1.0,0.0,,,,1.0,2.0,1,5,1019.0,2025.0,2.0,1.0,0.0,0.0,0.0,3.080000000000001,Different,correct
218.0,1.899,1.0,5.0,,,,4.0,3.0,5,5,4024.0,3027.0,4.0,1.0,1.0,5.0,5.0,3.0021300000000015,Different,correct
219.0,1.7746,1.0,5.0,,,,4.0,4.0,1,5,4018.0,4029.0,4.0,2.0,1.0,5.0,5.0,2.9718700000000013,Same,correct
220.0,2.9635,1.0,1.0,,,,2.0,1.0,1,1,2017.0,1019.0,2.0,1.0,1.0,1.0,1.0,3.0788200000000012,Different,correct
221.0,3.0733,1.0,1.0,,,,3.0,1.0,1,1,3012.0,1019.0,1.0,2.0,1.0,1.0,1.0,2.7360900000000017,Different,correct
222.0,1.9605,1.0,1.0,,,,3.0,1.0,1,5,3014.0,1021.0,3.0,1.0,1.0,1.0,1.0,2.7444100000000016,Different,correct
223.0,2.6644,1.0,1.0,,,,4.0,3.0,1,1,4016.0,3018.0,4.0,1.0,1.0,1.0,1.0,2.8155400000000013,Different,correct
224.0,3.1186,1.0,0.0,,,,1.0,3.0,1,5,1012.0,3028.0,3.0,1.0,0.0,0.0,0.0,2.5488200000000014,Different,correct
225.0,1.744,1.0,0.0,,,,1.0,4.0,5,5,1024.0,4029.0,1.0,2.0,0.0,0.0,0.0,2.4234400000000016,Different,correct
226.0,1.6563,1.0,1.0,,,,3.0,4.0,5,1,3023.0,4011.0,4.0,2.0,1.0,1.0,1.0,2.3225200000000017,Different,correct
227.0,2.8402,1.0,0.0,,,,4.0,3.0,5,1,4023.0,3013.0,4.0,2.0,0.0,0.0,0.0,2.3694400000000013,Different,correct
228.0,1.6504,1.0,1.0,,,,1.0,1.0,1,1,1015.0,1019.0,1.0,2.0,1.0,1.0,1.0,2.3445800000000014,Same,correct
229.0,2.016,1.0,0.0,,,,3.0,3.0,5,1,3026.0,3018.0,2.0,2.0,0.0,0.0,0.0,2.3687200000000015,Same,correct
230.0,1.8512,1.0,1.0,,,,2.0,2.0,1,1,2019.0,2012.0,2.0,1.0,1.0,1.0,1.0,2.2574900000000016,Same,correct
231.0,2.6341,1.0,0.0,,,,4.0,3.0,5,1,4021.0,3012.0,3.0,1.0,0.0,0.0,0.0,2.2135700000000016,Different,correct
232.0,1.9121,1.0,5.0,,,,4.0,2.0,5,5,4024.0,2023.0,4.0,1.0,1.0,5.0,5.0,2.2087300000000014,Different,correct
233.0,2.2603,1.0,5.0,,,,1.0,2.0,5,5,1024.0,2025.0,2.0,2.0,1.0,5.0,5.0,2.1683200000000014,Different,correct
234.0,3.8639,1.0,0.0,,,,2.0,4.0,5,1,2027.0,4013.0,2.0,2.0,0.0,0.0,0.0,2.2428500000000016,Different,correct
235.0,1.567,1.0,5.0,,,,1.0,3.0,1,5,1019.0,3024.0,3.0,2.0,1.0,5.0,5.0,2.2251500000000015,Different,correct
236.0,3.4563,1.0,0.0,,,,1.0,2.0,5,5,1027.0,2028.0,1.0,2.0,0.0,0.0,0.0,2.4051500000000017,Different,correct
237.0,1.5173,1.0,5.0,,,,4.0,4.0,5,5,4022.0,4024.0,4.0,2.0,1.0,5.0,5.0,2.2728600000000014,Same,correct
238.0,3.0685,1.0,1.0,,,,3.0,3.0,1,1,3014.0,3012.0,3.0,1.0,1.0,1.0,1.0,2.4146700000000014,Same,correct
239.0,3.4499,1.0,5.0,,,,3.0,3.0,5,1,3025.0,3019.0,3.0,1.0,1.0,5.0,5.0,2.5580600000000016,Same,correct
240.0,3.3866,1.0,0.0,,,,3.0,2.0,1,1,3014.0,2017.0,2.0,1.0,0.0,0.0,0.0,2.7116000000000016,Different,correct
241.0,1.787,1.0,0.0,,,,2.0,4.0,1,5,2018.0,4025.0,2.0,2.0,0.0,0.0,0.0,2.6268900000000013,Different,correct
242.0,1.5909,1.0,5.0,,,,1.0,1.0,1,5,1017.0,1028.0,1.0,2.0,1.0,5.0,5.0,2.5947700000000014,Same,correct
243.0,3.1959,1.0,1.0,,,,3.0,1.0,1,1,3018.0,1014.0,3.0,1.0,1.0,1.0,1.0,2.6883300000000014,Different,correct
244.0,5.3149,1.0,0.0,,,,4.0,2.0,5,1,4027.0,2016.0,2.0,1.0,0.0,0.0,0.0,2.8334300000000012,Different,correct
245.0,1.7322,0.0,5.0,,,,3.0,3.0,5,1,3029.0,3015.0,3.0,2.0,1.0,1.0,1.0,2.8499500000000015,Same,same category
246.0,1.7687,1.0,1.0,,,,4.0,2.0,5,1,4027.0,2018.0,2.0,2.0,1.0,1.0,1.0,2.6811900000000013,Different,correct
247.0,1.8379,1.0,5.0,,,,4.0,2.0,1,5,4019.0,2028.0,2.0,2.0,1.0,5.0,5.0,2.7132500000000013,Different,correct
248.0,1.875,1.0,1.0,,,,1.0,3.0,1,5,1014.0,3028.0,1.0,1.0,1.0,1.0,1.0,2.5939000000000014,Different,correct
249.0,1.9108,1.0,1.0,,,,4.0,1.0,1,1,4012.0,1017.0,4.0,1.0,1.0,1.0,1.0,2.439990000000001,Different,correct
250.0,8.6852,1.0,5.0,,,,1.0,4.0,5,1,1021.0,4015.0,1.0,1.0,1.0,5.0,5.0,2.9698500000000014,Different,correct
251.0,1.7806,1.0,5.0,,,,1.0,3.0,5,1,1021.0,3011.0,1.0,1.0,1.0,5.0,5.0,2.9692100000000012,Different,correct
252.0,1.8638,1.0,1.0,,,,4.0,4.0,1,1,4015.0,4014.0,4.0,2.0,1.0,1.0,1.0,2.9965000000000015,Same,correct
253.0,2.2534,1.0,5.0,,,,4.0,3.0,5,1,4028.0,3013.0,4.0,1.0,1.0,5.0,5.0,2.9022500000000013,Different,correct
254.0,2.9396,1.0,1.0,,,,2.0,2.0,1,5,2011.0,2021.0,2.0,1.0,1.0,1.0,1.0,2.6647200000000013,Same,correct
255.0,5.5454,1.0,1.0,,,,1.0,2.0,1,1,1012.0,2018.0,1.0,1.0,1.0,1.0,1.0,3.0460400000000014,Different,correct
256.0,4.2281,1.0,0.0,,,,3.0,2.0,1,5,3011.0,2021.0,2.0,1.0,0.0,0.0,0.0,3.2919800000000015,Different,correct
257.0,2.2095,1.0,1.0,,,,3.0,2.0,5,1,3021.0,2012.0,2.0,2.0,1.0,1.0,1.0,3.3291400000000015,Different,correct
258.0,4.6955,1.0,5.0,,,,2.0,2.0,5,1,2022.0,2017.0,2.0,1.0,1.0,5.0,5.0,3.6111900000000015,Same,correct
259.0,3.9841,1.0,5.0,,,,2.0,4.0,5,1,2025.0,4015.0,2.0,1.0,1.0,5.0,5.0,3.8185200000000017,Different,correct
260.0,2.2954,1.0,0.0,,,,3.0,4.0,1,1,3015.0,4019.0,3.0,2.0,0.0,0.0,0.0,3.1795400000000016,Different,correct
261.0,2.0488,1.0,1.0,,,,1.0,2.0,5,1,1029.0,2013.0,2.0,2.0,1.0,1.0,1.0,3.2063600000000014,Different,correct
262.0,1.8417,1.0,1.0,,,,3.0,4.0,5,1,3021.0,4013.0,4.0,2.0,1.0,1.0,1.0,3.204150000000001,Different,correct
263.0,5.4237,1.0,0.0,,,,2.0,3.0,5,1,2026.0,3014.0,2.0,2.0,0.0,0.0,0.0,3.521180000000001,Different,correct
264.0,2.5506,1.0,1.0,,,,4.0,2.0,1,1,4013.0,2011.0,2.0,2.0,1.0,1.0,1.0,3.4822800000000016,Different,correct
265.0,3.079,1.0,0.0,,,,4.0,4.0,1,5,4015.0,4027.0,1.0,1.0,0.0,0.0,0.0,3.2356400000000014,Same,correct
266.0,85.4281,1.0,0.0,,,,1.0,1.0,1,5,1019.0,1025.0,4.0,1.0,0.0,0.0,0.0,11.355640000000001,Same,correct
267.0,2.2265,0.0,5.0,,,,1.0,3.0,5,1,1023.0,3015.0,1.0,2.0,0.0,0.0,0.0,11.35734,Different,swap error
268.0,1.9657,1.0,0.0,,,,3.0,1.0,5,5,3021.0,1029.0,1.0,1.0,0.0,0.0,0.0,11.08436,Different,correct
269.0,9.3441,1.0,5.0,,,,3.0,3.0,5,1,3027.0,3016.0,3.0,1.0,1.0,5.0,5.0,11.620360000000002,Same,correct
270.0,3.1469,1.0,1.0,,,,1.0,2.0,5,1,1023.0,2013.0,2.0,2.0,1.0,1.0,1.0,11.70551,Different,correct
271.0,3.5692,1.0,0.0,,,,1.0,1.0,1,5,1014.0,1028.0,4.0,1.0,0.0,0.0,0.0,11.85755,Same,correct
272.0,2.8053,1.0,1.0,,,,1.0,1.0,1,1,1016.0,1012.0,1.0,1.0,1.0,1.0,1.0,11.95391,Same,correct
273.0,2.1593,1.0,0.0,,,,2.0,2.0,1,5,2019.0,2024.0,3.0,2.0,0.0,0.0,0.0,11.62747,Same,correct
274.0,3.7533,1.0,5.0,,,,2.0,2.0,5,1,2023.0,2014.0,2.0,1.0,1.0,5.0,5.0,11.74774,Same,correct
275.0,2.3654,1.0,1.0,,,,2.0,2.0,1,1,2014.0,2012.0,2.0,2.0,1.0,1.0,1.0,11.676380000000002,Same,correct
276.0,2.45,1.0,1.0,,,,2.0,3.0,1,5,2012.0,3029.0,2.0,1.0,1.0,1.0,1.0,3.378570000000001,Different,correct
277.0,2.4263,1.0,1.0,,,,4.0,1.0,1,5,4015.0,1025.0,4.0,1.0,1.0,1.0,1.0,3.398550000000001,Different,correct
278.0,2.3269,1.0,1.0,,,,3.0,1.0,1,1,3015.0,1011.0,1.0,2.0,1.0,1.0,1.0,3.4346700000000014,Different,correct
279.0,2.9838,1.0,0.0,,,,3.0,2.0,5,5,3027.0,2025.0,2.0,1.0,0.0,0.0,0.0,2.7986400000000016,Different,correct
280.0,1.8022,0.0,5.0,,,,4.0,2.0,1,5,4018.0,2025.0,4.0,1.0,1.0,1.0,1.0,2.6641700000000013,Different,other error
281.0,2.2247,1.0,1.0,,,,4.0,1.0,1,1,4017.0,1016.0,4.0,1.0,1.0,1.0,1.0,2.5297200000000015,Different,correct
282.0,3.2509,1.0,5.0,,,,2.0,3.0,5,1,2023.0,3016.0,2.0,1.0,1.0,5.0,5.0,2.5742800000000017,Different,correct
283.0,2.8101,1.0,1.0,,,,2.0,4.0,1,1,2013.0,4012.0,2.0,1.0,1.0,1.0,1.0,2.6393600000000013,Different,correct
284.0,2.1409,1.0,5.0,,,,1.0,4.0,5,1,1021.0,4016.0,1.0,1.0,1.0,5.0,5.0,2.4781200000000014,Different,correct
285.0,2.457,1.0,5.0,,,,3.0,1.0,1,5,3019.0,1029.0,1.0,2.0,1.0,5.0,5.0,2.487280000000001,Different,correct
286.0,4.4723,1.0,5.0,,,,3.0,3.0,5,1,3028.0,3011.0,3.0,1.0,1.0,5.0,5.0,2.689510000000001,Same,correct
287.0,2.5864,1.0,1.0,,,,3.0,1.0,5,1,3029.0,1017.0,1.0,2.0,1.0,1.0,1.0,2.7055200000000013,Different,correct
288.0,3.1038,1.0,0.0,,,,1.0,4.0,1,1,1011.0,4019.0,1.0,2.0,0.0,0.0,0.0,2.7832100000000013,Different,correct
