trial,rt,acc,key,t_pre_stim,t_delay1,t_delay2,first_cat,second_cat,first_num,second_num,first_pic,second_pic,probe_cat,probe_pic,probe_validity,probe_num,correct_answer,rt_sliding_mean,cat_comparison,num_comparison,error_type
1.0,2.335284471511841,1.0,5.0,,,,2.0,4.0,5,5,2021.0,4028.0,2.0,1.0,1.0,5.0,5.0,,Different,Same,correct
2.0,2.6413516998291016,1.0,1.0,,,,1.0,1.0,1,1,1012.0,1015.0,1.0,2.0,1.0,1.0,1.0,,Same,Same,correct
3.0,2.3175222873687744,1.0,1.0,,,,3.0,2.0,1,1,3011.0,2018.0,2.0,2.0,1.0,1.0,1.0,,Different,Same,correct
4.0,1.922224760055542,1.0,5.0,,,,4.0,4.0,5,1,4029.0,4014.0,4.0,1.0,1.0,5.0,5.0,,Same,Different,correct
5.0,2.1203999519348145,1.0,0.0,,,,2.0,2.0,5,1,2029.0,2011.0,3.0,2.0,0.0,0.0,0.0,,Same,Different,correct
6.0,3.407883405685425,1.0,0.0,,,,1.0,4.0,5,5,1029.0,4025.0,1.0,2.0,0.0,0.0,0.0,,Different,Same,correct
7.0,4.712370872497559,1.0,5.0,,,,3.0,4.0,5,1,3027.0,4018.0,3.0,1.0,1.0,5.0,5.0,,Different,Different,correct
8.0,5.206594467163086,1.0,5.0,,,,3.0,4.0,5,1,3022.0,4016.0,3.0,1.0,1.0,5.0,5.0,,Different,Different,correct
9.0,4.166473865509033,1.0,0.0,,,,2.0,2.0,5,5,2024.0,2026.0,3.0,1.0,0.0,0.0,0.0,,Same,Same,correct
10.0,4.249502420425415,1.0,0.0,,,,3.0,2.0,1,5,3015.0,2029.0,2.0,1.0,0.0,0.0,0.0,3.3079608201980593,Different,Different,correct
11.0,2.487706422805786,1.0,5.0,,,,2.0,4.0,5,1,2021.0,4011.0,2.0,1.0,1.0,5.0,5.0,3.3232030153274534,Different,Different,correct
12.0,3.153320550918579,1.0,5.0,,,,1.0,1.0,5,5,1021.0,1026.0,1.0,2.0,1.0,5.0,5.0,3.3743999004364014,Same,Same,correct
13.0,2.628516435623169,1.0,1.0,,,,2.0,2.0,1,1,2014.0,2018.0,2.0,2.0,1.0,1.0,1.0,3.405499315261841,Same,Same,correct
14.0,2.3819472789764404,1.0,1.0,,,,3.0,2.0,1,1,3014.0,2015.0,2.0,2.0,1.0,1.0,1.0,3.4514715671539307,Different,Same,correct
15.0,4.61795711517334,1.0,1.0,,,,3.0,2.0,1,1,3015.0,2012.0,2.0,2.0,1.0,1.0,1.0,3.7012272834777833,Different,Same,correct
16.0,1.9721062183380127,1.0,5.0,,,,3.0,3.0,5,5,3029.0,3023.0,3.0,2.0,1.0,5.0,5.0,3.557649564743042,Same,Same,correct
17.0,2.003774404525757,0.0,1.0,,,,3.0,4.0,5,1,3028.0,4011.0,4.0,1.0,0.0,0.0,0.0,3.2867899179458617,Different,Different,swap error
18.0,0.736905574798584,0.0,5.0,,,,4.0,4.0,1,5,4011.0,4024.0,4.0,1.0,1.0,1.0,1.0,2.8398210287094114,Same,Different,same category
19.0,2.7158875465393066,1.0,5.0,,,,1.0,3.0,5,1,1023.0,3017.0,1.0,1.0,1.0,5.0,5.0,2.694762396812439,Different,Different,correct
20.0,5.091326475143433,1.0,5.0,,,,2.0,1.0,5,5,2027.0,1021.0,1.0,2.0,1.0,5.0,5.0,2.778944802284241,Different,Same,correct
21.0,1.1412668228149414,1.0,5.0,,,,1.0,1.0,5,5,1027.0,1028.0,1.0,2.0,1.0,5.0,5.0,2.644300842285156,Same,Same,correct
22.0,3.9096992015838623,1.0,0.0,,,,3.0,4.0,5,1,3021.0,4016.0,4.0,1.0,0.0,0.0,0.0,2.7199387073516847,Different,Different,correct
23.0,2.2781896591186523,1.0,5.0,,,,1.0,4.0,5,5,1028.0,4022.0,1.0,1.0,1.0,5.0,5.0,2.684906029701233,Different,Same,correct
24.0,3.8153185844421387,0.0,5.0,,,,1.0,4.0,1,1,1015.0,4014.0,4.0,1.0,0.0,0.0,0.0,2.8282431602478026,Different,Same,other error
25.0,10.71729850769043,1.0,0.0,,,,3.0,1.0,5,1,3021.0,1019.0,3.0,2.0,0.0,0.0,0.0,3.438177299499512,Different,Different,correct
26.0,3.606722116470337,0.0,5.0,,,,3.0,3.0,5,1,3024.0,3018.0,3.0,2.0,1.0,1.0,1.0,3.6016388893127442,Same,Different,same category
27.0,4.59701132774353,0.0,5.0,,,,2.0,3.0,5,1,2026.0,3015.0,3.0,2.0,1.0,1.0,1.0,3.8609625816345217,Different,Different,other error
28.0,4.409947156906128,1.0,1.0,,,,1.0,1.0,1,1,1012.0,1017.0,1.0,1.0,1.0,1.0,1.0,4.228266739845276,Same,Same,correct
29.0,2.4235026836395264,0.0,5.0,,,,4.0,2.0,1,5,4013.0,2029.0,2.0,1.0,0.0,0.0,0.0,4.199028253555298,Different,Different,swap error
30.0,1.8761379718780518,1.0,1.0,,,,4.0,2.0,1,1,4017.0,2013.0,2.0,2.0,1.0,1.0,1.0,3.8775094032287596,Different,Same,correct
31.0,4.047693967819214,1.0,1.0,,,,2.0,4.0,5,1,2028.0,4017.0,4.0,2.0,1.0,1.0,1.0,4.168152117729187,Different,Different,correct
32.0,3.55849027633667,1.0,5.0,,,,3.0,4.0,5,1,3026.0,4019.0,3.0,1.0,1.0,5.0,5.0,4.133031225204467,Different,Different,correct
33.0,2.1059536933898926,1.0,1.0,,,,2.0,4.0,5,1,2023.0,4011.0,4.0,2.0,1.0,1.0,1.0,4.115807628631591,Different,Different,correct
34.0,2.246185541152954,1.0,5.0,,,,2.0,4.0,5,5,2022.0,4028.0,4.0,2.0,1.0,5.0,5.0,3.9588943243026735,Different,Same,correct
35.0,4.45906662940979,1.0,0.0,,,,2.0,4.0,1,1,2013.0,4017.0,2.0,2.0,0.0,0.0,0.0,3.3330711364746093,Different,Same,correct
36.0,2.734464168548584,1.0,1.0,,,,3.0,3.0,1,1,3016.0,3011.0,3.0,1.0,1.0,1.0,1.0,3.245845341682434,Same,Same,correct
37.0,4.505253553390503,1.0,0.0,,,,1.0,3.0,1,5,1015.0,3029.0,1.0,2.0,0.0,0.0,0.0,3.2366695642471313,Different,Different,correct
38.0,2.5086984634399414,1.0,1.0,,,,1.0,1.0,1,1,1015.0,1014.0,1.0,2.0,1.0,1.0,1.0,3.0465446949005126,Same,Same,correct
39.0,3.7305850982666016,1.0,5.0,,,,2.0,3.0,1,5,2018.0,3025.0,3.0,2.0,1.0,5.0,5.0,3.17725293636322,Different,Different,correct
40.0,8.663060665130615,0.0,0.0,,,,3.0,1.0,5,5,3029.0,1028.0,3.0,1.0,1.0,5.0,5.0,3.8559452056884767,Different,Same,swap error
41.0,9.699692487716675,1.0,0.0,,,,4.0,2.0,1,5,4018.0,2022.0,2.0,1.0,0.0,0.0,0.0,4.421145057678222,Different,Different,correct
42.0,5.139068126678467,1.0,5.0,,,,2.0,3.0,5,5,2028.0,3029.0,2.0,1.0,1.0,5.0,5.0,4.5792028427124025,Different,Same,correct
43.0,2.6549484729766846,1.0,5.0,,,,2.0,1.0,5,5,2028.0,1022.0,1.0,2.0,1.0,5.0,5.0,4.634102320671081,Different,Same,correct
44.0,2.4233474731445312,1.0,5.0,,,,4.0,1.0,5,1,4027.0,1014.0,4.0,1.0,1.0,5.0,5.0,4.651818513870239,Different,Different,correct
45.0,9.466928482055664,1.0,0.0,,,,4.0,2.0,1,5,4017.0,2028.0,4.0,2.0,0.0,0.0,0.0,5.152604699134827,Different,Different,correct
46.0,1.4668231010437012,1.0,5.0,,,,1.0,1.0,5,5,1023.0,1029.0,1.0,1.0,1.0,5.0,5.0,5.025840592384339,Same,Same,correct
47.0,8.80271053314209,0.0,0.0,,,,4.0,3.0,5,5,4021.0,3021.0,3.0,2.0,1.0,5.0,5.0,5.455586290359497,Different,Same,swap error
48.0,8.202811479568481,1.0,0.0,,,,1.0,4.0,5,1,1022.0,4014.0,1.0,2.0,0.0,0.0,0.0,6.024997591972351,Different,Different,correct
49.0,8.20149540901184,1.0,0.0,,,,2.0,3.0,5,5,2025.0,3027.0,2.0,2.0,0.0,0.0,0.0,6.472088623046875,Different,Same,correct
50.0,1.3645236492156982,1.0,5.0,,,,4.0,4.0,5,5,4022.0,4024.0,4.0,1.0,1.0,5.0,5.0,5.742234921455383,Same,Same,correct
51.0,3.1820449829101562,1.0,5.0,,,,1.0,2.0,5,5,1025.0,2028.0,2.0,2.0,1.0,5.0,5.0,5.090470170974731,Different,Same,correct
52.0,2.4511735439300537,1.0,1.0,,,,4.0,4.0,1,1,4012.0,4011.0,4.0,2.0,1.0,1.0,1.0,4.82168071269989,Same,Same,correct
53.0,5.753078460693359,1.0,0.0,,,,4.0,3.0,1,1,4014.0,3017.0,4.0,2.0,0.0,0.0,0.0,5.131493711471558,Different,Same,correct
54.0,11.499167203903198,1.0,5.0,,,,4.0,3.0,1,5,4017.0,3022.0,3.0,2.0,1.0,5.0,5.0,6.0390756845474245,Different,Different,correct
55.0,4.3259358406066895,1.0,0.0,,,,3.0,2.0,5,1,3022.0,2013.0,3.0,2.0,0.0,0.0,0.0,5.524976420402527,Different,Different,correct
56.0,1.9224929809570312,1.0,0.0,,,,1.0,1.0,1,1,1011.0,1012.0,4.0,1.0,0.0,0.0,0.0,5.57054340839386,Same,Same,correct
57.0,1.8444557189941406,1.0,1.0,,,,3.0,4.0,1,1,3019.0,4015.0,3.0,1.0,1.0,1.0,1.0,4.874717926979065,Different,Same,correct
58.0,2.8422255516052246,1.0,0.0,,,,1.0,2.0,5,1,1022.0,2013.0,1.0,2.0,0.0,0.0,0.0,4.338659334182739,Different,Different,correct
59.0,4.464258670806885,1.0,0.0,,,,4.0,3.0,1,1,4014.0,3014.0,3.0,1.0,0.0,0.0,0.0,3.9649356603622437,Different,Same,correct
60.0,3.3117051124572754,1.0,0.0,,,,4.0,2.0,1,1,4016.0,2013.0,2.0,1.0,0.0,0.0,0.0,4.159653806686402,Different,Same,correct
61.0,3.1534945964813232,1.0,0.0,,,,3.0,4.0,1,1,3012.0,4014.0,3.0,2.0,0.0,0.0,0.0,4.156798768043518,Different,Same,correct
62.0,4.119792461395264,1.0,5.0,,,,3.0,1.0,5,5,3021.0,1025.0,1.0,2.0,1.0,5.0,5.0,4.323660659790039,Different,Same,correct
63.0,4.325771331787109,1.0,0.0,,,,2.0,2.0,1,5,2011.0,2029.0,3.0,2.0,0.0,0.0,0.0,4.180929946899414,Same,Different,correct
64.0,1.7649352550506592,1.0,1.0,,,,2.0,4.0,5,1,2028.0,4011.0,4.0,2.0,1.0,1.0,1.0,3.2075067520141602,Different,Different,correct
65.0,3.872795581817627,1.0,5.0,,,,1.0,3.0,5,5,1023.0,3027.0,3.0,2.0,1.0,5.0,5.0,3.162192726135254,Different,Same,correct
66.0,3.312260866165161,1.0,0.0,,,,1.0,3.0,5,5,1027.0,3024.0,1.0,2.0,0.0,0.0,0.0,3.301169514656067,Different,Same,correct
67.0,5.461384296417236,1.0,0.0,,,,3.0,4.0,1,5,3013.0,4026.0,4.0,1.0,0.0,0.0,0.0,3.6628623723983766,Different,Different,correct
68.0,3.454655408859253,1.0,1.0,,,,3.0,1.0,1,1,3015.0,1011.0,1.0,2.0,1.0,1.0,1.0,3.7241053581237793,Different,Same,correct
69.0,2.936030387878418,0.0,1.0,,,,1.0,2.0,5,1,1027.0,2015.0,2.0,1.0,0.0,0.0,0.0,3.5712825298309325,Different,Different,swap error
70.0,2.75960636138916,1.0,1.0,,,,1.0,3.0,1,1,1016.0,3017.0,1.0,1.0,1.0,1.0,1.0,3.516072654724121,Different,Same,correct
71.0,1.7377734184265137,1.0,5.0,,,,4.0,2.0,1,5,4014.0,2027.0,2.0,2.0,1.0,5.0,5.0,3.37450053691864,Different,Different,correct
72.0,1.9208683967590332,1.0,5.0,,,,4.0,1.0,5,5,4027.0,1026.0,1.0,2.0,1.0,5.0,5.0,3.154608130455017,Different,Same,correct
73.0,1.4445202350616455,1.0,5.0,,,,1.0,2.0,5,5,1029.0,2025.0,2.0,2.0,1.0,5.0,5.0,2.8664830207824705,Different,Same,correct
74.0,5.189997673034668,1.0,0.0,,,,2.0,3.0,1,5,2016.0,3027.0,3.0,1.0,0.0,0.0,0.0,3.2089892625808716,Different,Different,correct
75.0,2.233069658279419,1.0,5.0,,,,4.0,4.0,5,5,4024.0,4022.0,4.0,1.0,1.0,5.0,5.0,3.0450166702270507,Same,Same,correct
76.0,3.3801722526550293,1.0,0.0,,,,4.0,2.0,1,5,4016.0,2027.0,4.0,2.0,0.0,0.0,0.0,3.0518078088760374,Different,Different,correct
77.0,2.556614398956299,1.0,5.0,,,,1.0,4.0,1,5,1012.0,4028.0,4.0,2.0,1.0,5.0,5.0,2.761330819129944,Different,Different,correct
78.0,11.525198221206665,0.0,0.0,,,,4.0,3.0,5,5,4027.0,3028.0,4.0,1.0,1.0,5.0,5.0,3.568385100364685,Different,Same,swap error
79.0,4.2520246505737305,1.0,0.0,,,,4.0,3.0,1,5,4014.0,3029.0,3.0,1.0,0.0,0.0,0.0,3.6999845266342164,Different,Different,correct
80.0,3.4657812118530273,1.0,0.0,,,,2.0,3.0,1,5,2014.0,3023.0,2.0,2.0,0.0,0.0,0.0,3.770602011680603,Different,Different,correct
81.0,3.04913067817688,1.0,0.0,,,,3.0,4.0,5,5,3028.0,4024.0,3.0,2.0,0.0,0.0,0.0,3.9017377376556395,Different,Same,correct
82.0,1.9480698108673096,1.0,0.0,,,,1.0,1.0,5,5,1021.0,1022.0,4.0,1.0,0.0,0.0,0.0,3.9044578790664675,Same,Same,correct
83.0,2.93095326423645,1.0,5.0,,,,2.0,2.0,1,5,2011.0,2021.0,2.0,2.0,1.0,5.0,5.0,4.053101181983948,Same,Different,correct
84.0,5.531682968139648,1.0,5.0,,,,2.0,3.0,5,1,2026.0,3011.0,2.0,1.0,1.0,5.0,5.0,4.087269711494446,Different,Different,correct
85.0,8.754052877426147,1.0,0.0,,,,4.0,1.0,1,5,4018.0,1025.0,1.0,1.0,0.0,0.0,0.0,4.739368033409119,Different,Different,correct
86.0,2.1018383502960205,1.0,5.0,,,,2.0,3.0,5,1,2029.0,3018.0,2.0,1.0,1.0,5.0,5.0,4.611534643173218,Different,Different,correct
87.0,4.694668292999268,1.0,1.0,,,,3.0,4.0,1,1,3012.0,4015.0,4.0,2.0,1.0,1.0,1.0,4.825340032577515,Different,Same,correct
88.0,2.6791064739227295,1.0,1.0,,,,3.0,3.0,5,1,3024.0,3014.0,3.0,2.0,1.0,1.0,1.0,3.940730857849121,Same,Different,correct
89.0,3.552656650543213,1.0,0.0,,,,1.0,3.0,1,1,1018.0,3013.0,1.0,2.0,0.0,0.0,0.0,3.8707940578460693,Different,Same,correct
90.0,4.286427974700928,1.0,0.0,,,,3.0,3.0,1,1,3013.0,3019.0,2.0,1.0,0.0,0.0,0.0,3.952858734130859,Same,Same,correct
91.0,3.593275547027588,1.0,0.0,,,,2.0,1.0,1,5,2018.0,1026.0,2.0,2.0,0.0,0.0,0.0,4.0072732210159305,Different,Different,correct
92.0,2.6361374855041504,1.0,5.0,,,,3.0,2.0,1,5,3014.0,2024.0,2.0,2.0,1.0,5.0,5.0,4.076079988479615,Different,Different,correct
93.0,3.117382287979126,1.0,0.0,,,,4.0,1.0,5,5,4026.0,1028.0,4.0,2.0,0.0,0.0,0.0,4.094722890853882,Different,Same,correct
94.0,3.4021387100219727,1.0,1.0,,,,2.0,1.0,5,1,2022.0,1014.0,1.0,2.0,1.0,1.0,1.0,3.8817684650421143,Different,Different,correct
95.0,5.741098165512085,1.0,0.0,,,,3.0,2.0,1,1,3015.0,2012.0,3.0,2.0,0.0,0.0,0.0,3.580472993850708,Different,Same,correct
96.0,4.494977951049805,1.0,1.0,,,,1.0,3.0,1,5,1018.0,3026.0,1.0,1.0,1.0,1.0,1.0,3.8197869539260862,Different,Different,correct
97.0,2.333914279937744,1.0,1.0,,,,2.0,1.0,1,5,2012.0,1022.0,2.0,1.0,1.0,1.0,1.0,3.583711552619934,Different,Different,correct
98.0,1.1747376918792725,1.0,1.0,,,,4.0,4.0,1,1,4018.0,4016.0,4.0,1.0,1.0,1.0,1.0,3.433274674415588,Same,Same,correct
99.0,2.072112798690796,1.0,5.0,,,,2.0,2.0,1,5,2012.0,2027.0,2.0,2.0,1.0,5.0,5.0,3.2852202892303466,Same,Different,correct
100.0,3.1281230449676514,1.0,5.0,,,,2.0,1.0,5,5,2023.0,1024.0,2.0,1.0,1.0,5.0,5.0,3.169389796257019,Different,Same,correct
101.0,3.546823263168335,1.0,1.0,,,,3.0,1.0,5,1,3024.0,1019.0,1.0,2.0,1.0,1.0,1.0,3.164744567871094,Different,Different,correct
102.0,1.2509620189666748,1.0,5.0,,,,3.0,1.0,1,5,3016.0,1021.0,1.0,2.0,1.0,5.0,5.0,3.026227021217346,Different,Different,correct
103.0,1.7647647857666016,1.0,5.0,,,,2.0,3.0,1,5,2015.0,3027.0,3.0,2.0,1.0,5.0,5.0,2.8909652709960936,Different,Different,correct
104.0,2.534712553024292,1.0,1.0,,,,1.0,2.0,1,1,1018.0,2016.0,2.0,2.0,1.0,1.0,1.0,2.804222655296326,Different,Same,correct
105.0,3.6880433559417725,1.0,1.0,,,,4.0,3.0,1,5,4011.0,3027.0,4.0,1.0,1.0,1.0,1.0,2.5989171743392943,Different,Different,correct
106.0,3.4064414501190186,1.0,0.0,,,,2.0,1.0,5,1,2026.0,1016.0,2.0,2.0,0.0,0.0,0.0,2.490063524246216,Different,Different,correct
107.0,1.2351806163787842,1.0,5.0,,,,4.0,4.0,5,5,4025.0,4024.0,4.0,1.0,1.0,5.0,5.0,2.3801901578903197,Same,Same,correct
108.0,1.429879903793335,1.0,1.0,,,,4.0,4.0,1,1,4011.0,4012.0,4.0,2.0,1.0,1.0,1.0,2.405704379081726,Same,Same,correct
109.0,8.58344841003418,1.0,5.0,,,,2.0,2.0,5,1,2022.0,2012.0,2.0,1.0,1.0,5.0,5.0,3.0568379402160644,Same,Different,correct
110.0,4.234163999557495,1.0,0.0,,,,2.0,4.0,1,5,2015.0,4021.0,4.0,1.0,0.0,0.0,0.0,3.167442035675049,Different,Different,correct
111.0,2.3599984645843506,1.0,1.0,,,,1.0,4.0,1,1,1013.0,4018.0,1.0,1.0,1.0,1.0,1.0,3.0487595558166505,Different,Same,correct
112.0,3.277235269546509,1.0,5.0,,,,1.0,1.0,5,5,1023.0,1025.0,1.0,2.0,1.0,5.0,5.0,3.251386880874634,Same,Same,correct
113.0,2.7730298042297363,1.0,0.0,,,,1.0,3.0,5,1,1025.0,3012.0,1.0,2.0,0.0,0.0,0.0,3.3522133827209473,Different,Different,correct
114.0,9.474778175354004,1.0,1.0,,,,1.0,2.0,1,1,1013.0,2019.0,1.0,1.0,1.0,1.0,1.0,4.0462199449539185,Different,Same,correct
115.0,2.8597400188446045,1.0,1.0,,,,2.0,4.0,1,5,2011.0,4024.0,2.0,1.0,1.0,1.0,1.0,3.9633896112442017,Different,Different,correct
116.0,2.2015879154205322,1.0,1.0,,,,4.0,1.0,1,1,4016.0,1011.0,4.0,1.0,1.0,1.0,1.0,3.842904257774353,Different,Same,correct
117.0,2.5488345623016357,1.0,5.0,,,,3.0,2.0,5,1,3028.0,2017.0,3.0,1.0,1.0,5.0,5.0,3.974269652366638,Different,Different,correct
118.0,2.893810510635376,1.0,0.0,,,,1.0,1.0,1,5,1018.0,1026.0,4.0,1.0,0.0,0.0,0.0,4.120662713050843,Same,Different,correct
119.0,4.145121097564697,1.0,5.0,,,,2.0,1.0,1,5,2011.0,1023.0,1.0,2.0,1.0,5.0,5.0,3.676829981803894,Different,Different,correct
120.0,3.871314764022827,1.0,5.0,,,,2.0,3.0,5,5,2026.0,3022.0,3.0,2.0,1.0,5.0,5.0,3.640545058250427,Different,Same,correct
121.0,1.5854589939117432,1.0,5.0,,,,1.0,4.0,5,5,1029.0,4025.0,4.0,2.0,1.0,5.0,5.0,3.5630911111831667,Different,Same,correct
122.0,1.246253490447998,1.0,5.0,,,,3.0,3.0,5,1,3025.0,3011.0,3.0,1.0,1.0,5.0,5.0,3.3599929332733156,Same,Different,correct
123.0,28.89683771133423,0.0,0.0,,,,4.0,3.0,5,1,4025.0,3011.0,4.0,1.0,1.0,5.0,5.0,5.972373723983765,Different,Different,swap error
124.0,3.4614710807800293,0.0,1.0,,,,4.0,1.0,1,1,4015.0,1018.0,1.0,1.0,0.0,0.0,0.0,5.371043014526367,Different,Same,swap error
125.0,2.024366617202759,1.0,1.0,,,,3.0,3.0,1,5,3013.0,3023.0,3.0,1.0,1.0,1.0,1.0,5.287505674362182,Same,Different,correct
126.0,1.3578710556030273,1.0,5.0,,,,4.0,4.0,5,5,4023.0,4022.0,4.0,2.0,1.0,5.0,5.0,5.203133988380432,Same,Same,correct
127.0,2.316432237625122,1.0,1.0,,,,3.0,4.0,1,1,3013.0,4014.0,4.0,2.0,1.0,1.0,1.0,5.179893755912781,Different,Same,correct
128.0,1.7102549076080322,1.0,1.0,,,,1.0,2.0,1,5,1012.0,2025.0,1.0,1.0,1.0,1.0,1.0,5.061538195610046,Different,Different,correct
129.0,1.789452075958252,1.0,1.0,,,,4.0,1.0,1,5,4011.0,1026.0,4.0,1.0,1.0,1.0,1.0,4.825971293449402,Different,Different,correct
130.0,1.7543487548828125,1.0,5.0,,,,2.0,3.0,5,1,2029.0,3015.0,2.0,1.0,1.0,5.0,5.0,4.614274692535401,Different,Different,correct
131.0,4.496859550476074,0.0,1.0,,,,4.0,2.0,5,5,4022.0,2023.0,4.0,2.0,0.0,0.0,0.0,4.905414748191833,Different,Same,other error
132.0,3.2481017112731934,1.0,0.0,,,,3.0,3.0,5,1,3026.0,3012.0,2.0,1.0,0.0,0.0,0.0,5.105599570274353,Same,Different,correct
133.0,2.167633533477783,1.0,1.0,,,,3.0,2.0,5,1,3023.0,2013.0,2.0,2.0,1.0,1.0,1.0,2.4326791524887086,Different,Different,correct
134.0,4.870483875274658,1.0,0.0,,,,2.0,2.0,1,1,2013.0,2017.0,3.0,1.0,0.0,0.0,0.0,2.573580431938171,Same,Same,correct
135.0,1.889435052871704,0.0,1.0,,,,1.0,4.0,1,1,1018.0,4018.0,1.0,1.0,1.0,5.0,5.0,2.560087275505066,Different,Same,other error
136.0,2.2979555130004883,1.0,1.0,,,,3.0,4.0,1,1,3012.0,4011.0,4.0,2.0,1.0,1.0,1.0,2.654095721244812,Different,Same,correct
137.0,1.1149096488952637,1.0,5.0,,,,2.0,1.0,5,5,2021.0,1027.0,1.0,2.0,1.0,5.0,5.0,2.533943462371826,Different,Same,correct
138.0,2.3186652660369873,1.0,1.0,,,,4.0,4.0,5,1,4029.0,4017.0,4.0,2.0,1.0,1.0,1.0,2.5947844982147217,Same,Different,correct
139.0,4.803951025009155,1.0,0.0,,,,2.0,1.0,1,1,2018.0,1016.0,2.0,2.0,0.0,0.0,0.0,2.896234393119812,Different,Same,correct
140.0,2.981903076171875,0.0,0.0,,,,2.0,3.0,1,5,2018.0,3021.0,3.0,2.0,1.0,5.0,5.0,3.018989825248718,Different,Different,swap error
141.0,3.754281759262085,1.0,0.0,,,,4.0,1.0,1,5,4012.0,1029.0,1.0,1.0,0.0,0.0,0.0,2.9447320461273194,Different,Different,correct
142.0,5.059052467346191,1.0,0.0,,,,2.0,1.0,1,1,2016.0,1013.0,2.0,2.0,0.0,0.0,0.0,3.125827121734619,Different,Same,correct
143.0,6.723986864089966,1.0,1.0,,,,2.0,3.0,5,1,2022.0,3017.0,3.0,2.0,1.0,1.0,1.0,3.5814624547958376,Different,Different,correct
144.0,3.3781821727752686,0.0,1.0,,,,4.0,3.0,5,1,4022.0,3016.0,3.0,1.0,0.0,0.0,0.0,3.4322322845458983,Different,Different,swap error
145.0,10.700188159942627,0.0,1.0,,,,1.0,4.0,1,5,1014.0,4028.0,4.0,1.0,0.0,0.0,0.0,4.313307595252991,Different,Different,other error
146.0,4.084481477737427,1.0,0.0,,,,4.0,3.0,5,1,4026.0,3014.0,4.0,2.0,0.0,0.0,0.0,4.491960191726685,Different,Different,correct
147.0,4.207368612289429,1.0,1.0,,,,4.0,3.0,1,5,4011.0,3021.0,4.0,1.0,1.0,1.0,1.0,4.801206088066101,Different,Different,correct
148.0,4.105567932128906,1.0,0.0,,,,3.0,4.0,5,5,3029.0,4022.0,3.0,2.0,0.0,0.0,0.0,4.979896354675293,Different,Same,correct
149.0,4.043376445770264,1.0,0.0,,,,2.0,4.0,5,5,2029.0,4025.0,2.0,2.0,0.0,0.0,0.0,4.903838896751404,Different,Same,correct
150.0,3.4832046031951904,1.0,0.0,,,,4.0,1.0,1,1,4013.0,1011.0,1.0,1.0,0.0,0.0,0.0,4.953969049453735,Different,Same,correct
151.0,5.519961595535278,1.0,0.0,,,,1.0,4.0,5,1,1028.0,4016.0,4.0,1.0,0.0,0.0,0.0,5.130537033081055,Different,Different,correct
152.0,2.092829465866089,1.0,1.0,,,,1.0,3.0,1,1,1016.0,3011.0,1.0,1.0,1.0,1.0,1.0,4.833914732933044,Different,Same,correct
153.0,4.5955650806427,1.0,0.0,,,,1.0,2.0,5,1,1027.0,2014.0,2.0,1.0,0.0,0.0,0.0,4.621072554588318,Different,Different,correct
154.0,4.805732011795044,0.0,0.0,,,,2.0,1.0,1,1,2016.0,1011.0,2.0,1.0,1.0,1.0,1.0,4.763827538490295,Different,Same,swap error
155.0,1.9723689556121826,1.0,1.0,,,,4.0,1.0,5,1,4022.0,1013.0,1.0,2.0,1.0,1.0,1.0,3.891045618057251,Different,Different,correct
156.0,6.083910703659058,1.0,1.0,,,,3.0,4.0,1,5,3017.0,4029.0,3.0,1.0,1.0,1.0,1.0,4.090988540649414,Different,Different,correct
157.0,2.691734552383423,1.0,5.0,,,,1.0,2.0,5,5,1023.0,2029.0,2.0,2.0,1.0,5.0,5.0,3.9394251346588134,Different,Same,correct
158.0,6.890374422073364,1.0,0.0,,,,4.0,2.0,1,1,4014.0,2018.0,4.0,2.0,0.0,0.0,0.0,4.21790578365326,Different,Same,correct
159.0,4.886276960372925,1.0,0.0,,,,2.0,4.0,5,1,2022.0,4017.0,4.0,1.0,0.0,0.0,0.0,4.302195835113525,Different,Different,correct
160.0,3.0945794582366943,1.0,1.0,,,,2.0,2.0,1,1,2012.0,2018.0,2.0,1.0,1.0,1.0,1.0,4.263333320617676,Same,Same,correct
161.0,3.12831449508667,1.0,0.0,,,,1.0,4.0,1,1,1011.0,4013.0,4.0,1.0,0.0,0.0,0.0,4.024168610572815,Different,Same,correct
162.0,6.188995599746704,1.0,0.0,,,,2.0,1.0,1,5,2011.0,1021.0,2.0,2.0,0.0,0.0,0.0,4.433785223960877,Different,Different,correct
163.0,2.1322314739227295,1.0,5.0,,,,4.0,3.0,5,5,4024.0,3027.0,4.0,1.0,1.0,5.0,5.0,4.18745186328888,Different,Same,correct
164.0,2.349372625350952,1.0,1.0,,,,3.0,3.0,1,1,3017.0,3011.0,3.0,1.0,1.0,1.0,1.0,3.9418159246444704,Same,Same,correct
165.0,5.206329822540283,1.0,1.0,,,,1.0,3.0,5,1,1021.0,3019.0,3.0,2.0,1.0,1.0,1.0,4.2652120113372805,Different,Different,correct
166.0,3.536311149597168,1.0,5.0,,,,3.0,2.0,5,5,3023.0,2023.0,3.0,1.0,1.0,5.0,5.0,4.010452055931092,Different,Same,correct
167.0,2.97373104095459,1.0,5.0,,,,1.0,1.0,5,5,1025.0,1023.0,1.0,1.0,1.0,5.0,5.0,4.038651704788208,Same,Same,correct
168.0,4.936465501785278,1.0,0.0,,,,2.0,4.0,1,1,2012.0,4014.0,4.0,1.0,0.0,0.0,0.0,3.8432608127593992,Different,Same,correct
169.0,3.156155824661255,1.0,1.0,,,,3.0,2.0,5,1,3024.0,2016.0,2.0,2.0,1.0,1.0,1.0,3.6702486991882326,Different,Different,correct
170.0,4.1553661823272705,1.0,0.0,,,,3.0,3.0,1,5,3017.0,3028.0,2.0,1.0,0.0,0.0,0.0,3.77632737159729,Same,Different,correct
171.0,3.917971134185791,1.0,5.0,,,,3.0,1.0,5,5,3029.0,1027.0,1.0,2.0,1.0,5.0,5.0,3.855293035507202,Different,Same,correct
172.0,6.7657880783081055,1.0,5.0,,,,1.0,3.0,5,5,1028.0,3027.0,3.0,2.0,1.0,5.0,5.0,3.9129722833633425,Different,Same,correct
173.0,3.893218517303467,1.0,1.0,,,,4.0,1.0,1,5,4012.0,1028.0,4.0,1.0,1.0,1.0,1.0,4.089070987701416,Different,Different,correct
174.0,5.044739246368408,1.0,0.0,,,,3.0,1.0,1,1,3015.0,1014.0,3.0,2.0,0.0,0.0,0.0,4.358607649803162,Different,Same,correct
175.0,2.1676836013793945,1.0,1.0,,,,1.0,4.0,1,5,1012.0,4022.0,1.0,1.0,1.0,1.0,1.0,4.054743027687072,Different,Different,correct
176.0,3.4592020511627197,1.0,1.0,,,,4.0,4.0,1,5,4018.0,4023.0,4.0,1.0,1.0,1.0,1.0,4.047032117843628,Same,Different,correct
177.0,3.5586721897125244,1.0,1.0,,,,3.0,2.0,1,5,3016.0,2025.0,3.0,1.0,1.0,1.0,1.0,4.105526232719422,Different,Different,correct
178.0,3.4713969230651855,1.0,5.0,,,,2.0,2.0,5,1,2028.0,2014.0,2.0,1.0,1.0,5.0,5.0,3.9590193748474123,Same,Different,correct
179.0,1.9199094772338867,1.0,5.0,,,,4.0,4.0,5,5,4026.0,4025.0,4.0,2.0,1.0,5.0,5.0,3.8353947401046753,Same,Same,correct
180.0,3.6634137630462646,0.0,0.0,,,,2.0,4.0,1,1,2017.0,4011.0,2.0,1.0,1.0,1.0,1.0,3.7861994981765745,Different,Same,swap error
181.0,3.0709376335144043,1.0,5.0,,,,2.0,2.0,1,5,2012.0,2024.0,2.0,2.0,1.0,5.0,5.0,3.701496148109436,Same,Different,correct
182.0,5.380054473876953,1.0,0.0,,,,4.0,1.0,5,1,4021.0,1012.0,4.0,2.0,0.0,0.0,0.0,3.562922787666321,Different,Different,correct
183.0,4.4007041454315186,1.0,0.0,,,,1.0,2.0,5,5,1023.0,2028.0,1.0,2.0,0.0,0.0,0.0,3.613671350479126,Different,Same,correct
184.0,7.727914333343506,1.0,0.0,,,,1.0,1.0,5,1,1029.0,1016.0,4.0,2.0,0.0,0.0,0.0,3.881988859176636,Same,Different,correct
185.0,7.976790189743042,0.0,5.0,,,,4.0,1.0,5,1,4027.0,1019.0,1.0,1.0,0.0,0.0,0.0,4.462899518013001,Different,Different,other error
186.0,2.376849412918091,1.0,5.0,,,,3.0,1.0,1,5,3012.0,1028.0,1.0,2.0,1.0,5.0,5.0,4.354664254188537,Different,Different,correct
187.0,1.458486795425415,1.0,5.0,,,,2.0,1.0,5,1,2023.0,1018.0,2.0,1.0,1.0,5.0,5.0,4.144645714759827,Different,Different,correct
188.0,3.3696699142456055,1.0,0.0,,,,3.0,1.0,5,5,3021.0,1024.0,1.0,1.0,0.0,0.0,0.0,4.1344730138778685,Different,Same,correct
189.0,2.245413303375244,1.0,1.0,,,,3.0,2.0,1,1,3018.0,2019.0,2.0,2.0,1.0,1.0,1.0,4.167023396492004,Different,Same,correct
190.0,8.982167720794678,0.0,0.0,,,,1.0,4.0,5,1,1022.0,4012.0,1.0,1.0,1.0,5.0,5.0,4.698898792266846,Different,Different,swap error
191.0,3.588508367538452,1.0,5.0,,,,1.0,1.0,1,5,1019.0,1029.0,1.0,2.0,1.0,5.0,5.0,4.75065586566925,Same,Different,correct
192.0,2.2115914821624756,1.0,0.0,,,,2.0,2.0,1,5,2017.0,2027.0,3.0,2.0,0.0,0.0,0.0,4.433809566497803,Same,Different,correct
193.0,2.8651304244995117,0.0,5.0,,,,4.0,3.0,5,1,4022.0,3018.0,3.0,2.0,1.0,1.0,1.0,4.280252194404602,Different,Different,other error
194.0,1.5355021953582764,1.0,5.0,,,,3.0,3.0,5,5,3026.0,3027.0,3.0,1.0,1.0,5.0,5.0,3.661010980606079,Same,Same,correct
195.0,1.535325288772583,1.0,5.0,,,,4.0,2.0,5,1,4023.0,2019.0,4.0,1.0,1.0,5.0,5.0,3.0168644905090334,Different,Different,correct
196.0,2.8384931087493896,1.0,1.0,,,,1.0,2.0,1,5,1011.0,2026.0,1.0,1.0,1.0,1.0,1.0,3.063028860092163,Different,Different,correct
197.0,3.428220748901367,1.0,1.0,,,,3.0,2.0,5,1,3025.0,2019.0,2.0,2.0,1.0,1.0,1.0,3.2600022554397583,Different,Different,correct
198.0,4.024763107299805,1.0,1.0,,,,3.0,3.0,5,1,3028.0,3019.0,3.0,2.0,1.0,1.0,1.0,3.3255115747451782,Same,Different,correct
199.0,3.097752809524536,1.0,1.0,,,,2.0,1.0,1,1,2018.0,1017.0,1.0,2.0,1.0,1.0,1.0,3.4107455253601073,Different,Same,correct
200.0,1.5389602184295654,1.0,5.0,,,,4.0,4.0,1,5,4018.0,4029.0,4.0,2.0,1.0,5.0,5.0,2.666424775123596,Same,Different,correct
201.0,1.244201898574829,1.0,1.0,,,,4.0,4.0,1,1,4019.0,4012.0,4.0,1.0,1.0,1.0,1.0,2.4319941282272337,Same,Same,correct
202.0,6.571580410003662,1.0,5.0,,,,2.0,3.0,5,5,2026.0,3028.0,2.0,1.0,1.0,5.0,5.0,2.8679930210113525,Different,Same,correct
203.0,19.425945520401,0.0,0.0,,,,1.0,4.0,5,5,1023.0,4024.0,4.0,2.0,1.0,5.0,5.0,4.524074530601501,Different,Same,swap error
204.0,2.0240633487701416,1.0,5.0,,,,2.0,4.0,5,5,2029.0,4026.0,2.0,1.0,1.0,5.0,5.0,4.572930645942688,Different,Same,correct
205.0,3.9639623165130615,0.0,1.0,,,,4.0,1.0,1,1,4017.0,1019.0,1.0,1.0,0.0,0.0,0.0,4.815794348716736,Different,Same,swap error
206.0,2.5266456604003906,1.0,5.0,,,,1.0,3.0,1,5,1017.0,3025.0,3.0,2.0,1.0,5.0,5.0,4.784609603881836,Different,Different,correct
207.0,1.3920929431915283,0.0,5.0,,,,2.0,1.0,5,5,2021.0,1029.0,1.0,1.0,0.0,0.0,0.0,4.580996823310852,Different,Same,swap error
208.0,21.65353012084961,0.0,0.0,,,,2.0,3.0,1,5,2012.0,3028.0,3.0,2.0,1.0,5.0,5.0,6.343873524665833,Different,Different,swap error
209.0,2.1273677349090576,1.0,1.0,,,,2.0,1.0,1,5,2019.0,1029.0,2.0,1.0,1.0,1.0,1.0,6.246835017204285,Different,Different,correct
210.0,3.066868305206299,1.0,5.0,,,,3.0,1.0,5,5,3029.0,1024.0,1.0,2.0,1.0,5.0,5.0,6.399625825881958,Different,Same,correct
211.0,4.045327186584473,1.0,5.0,,,,3.0,4.0,5,5,3028.0,4029.0,3.0,1.0,1.0,5.0,5.0,6.6797383546829225,Different,Same,correct
212.0,3.9197285175323486,0.0,5.0,,,,4.0,2.0,5,1,4024.0,2014.0,2.0,2.0,1.0,1.0,1.0,6.414553165435791,Different,Different,other error
213.0,1.2955889701843262,1.0,1.0,,,,4.0,1.0,5,1,4022.0,1014.0,1.0,2.0,1.0,1.0,1.0,4.601517510414124,Different,Different,correct
214.0,2.0126607418060303,0.0,1.0,,,,4.0,2.0,5,1,4021.0,2012.0,2.0,1.0,0.0,0.0,0.0,4.600377249717712,Different,Different,swap error
215.0,2.6472244262695312,1.0,1.0,,,,1.0,2.0,1,5,1015.0,2022.0,1.0,1.0,1.0,1.0,1.0,4.4687034606933596,Different,Different,correct
216.0,3.6245224475860596,1.0,0.0,,,,1.0,3.0,1,1,1011.0,3018.0,1.0,2.0,0.0,0.0,0.0,4.578491139411926,Different,Same,correct
217.0,3.5673646926879883,1.0,0.0,,,,1.0,2.0,1,5,1019.0,2025.0,2.0,1.0,0.0,0.0,0.0,4.796018314361572,Different,Different,correct
218.0,4.177436351776123,1.0,5.0,,,,4.0,3.0,5,5,4024.0,3027.0,4.0,1.0,1.0,5.0,5.0,3.048408937454224,Different,Same,correct
219.0,8.85429334640503,0.0,0.0,,,,4.0,4.0,1,5,4018.0,4029.0,4.0,2.0,1.0,5.0,5.0,3.721101498603821,Same,Different,same category
220.0,2.7344350814819336,1.0,1.0,,,,2.0,1.0,1,1,2017.0,1019.0,2.0,1.0,1.0,1.0,1.0,3.6878581762313845,Different,Same,correct
221.0,2.1184563636779785,1.0,1.0,,,,3.0,1.0,1,1,3012.0,1019.0,1.0,2.0,1.0,1.0,1.0,3.4951710939407348,Different,Same,correct
222.0,5.275683403015137,0.0,5.0,,,,3.0,1.0,1,5,3014.0,1021.0,3.0,1.0,1.0,1.0,1.0,3.630766582489014,Different,Different,other error
223.0,2.1073522567749023,1.0,1.0,,,,4.0,3.0,1,1,4016.0,3018.0,4.0,1.0,1.0,1.0,1.0,3.7119429111480713,Different,Same,correct
224.0,2.433481454849243,0.0,5.0,,,,1.0,3.0,1,5,1012.0,3028.0,3.0,1.0,0.0,0.0,0.0,3.7540249824523926,Different,Different,swap error
225.0,3.2900240421295166,1.0,0.0,,,,1.0,4.0,5,5,1024.0,4029.0,1.0,2.0,0.0,0.0,0.0,3.818304944038391,Different,Same,correct
226.0,2.0022501945495605,1.0,1.0,,,,3.0,4.0,5,1,3023.0,4011.0,4.0,2.0,1.0,1.0,1.0,3.6560777187347413,Different,Different,correct
227.0,3.044853687286377,1.0,0.0,,,,4.0,3.0,5,1,4023.0,3013.0,4.0,2.0,0.0,0.0,0.0,3.60382661819458,Different,Different,correct
228.0,2.6541647911071777,1.0,1.0,,,,1.0,1.0,1,1,1015.0,1019.0,1.0,2.0,1.0,1.0,1.0,3.4514994621276855,Same,Same,correct
229.0,4.143963575363159,1.0,0.0,,,,3.0,3.0,5,1,3026.0,3018.0,2.0,2.0,0.0,0.0,0.0,2.9804664850234985,Same,Different,correct
230.0,18.566023349761963,1.0,1.0,,,,2.0,2.0,1,1,2019.0,2012.0,2.0,1.0,1.0,1.0,1.0,4.563625311851501,Same,Same,correct
231.0,5.876370429992676,1.0,0.0,,,,4.0,3.0,5,1,4021.0,3012.0,3.0,1.0,0.0,0.0,0.0,4.939416718482971,Different,Different,correct
232.0,2.969416618347168,1.0,5.0,,,,4.0,2.0,5,5,4024.0,2023.0,4.0,1.0,1.0,5.0,5.0,4.708790040016174,Different,Same,correct
233.0,4.202446699142456,1.0,5.0,,,,1.0,2.0,5,5,1024.0,2025.0,2.0,2.0,1.0,5.0,5.0,4.9182994842529295,Different,Same,correct
234.0,4.6749913692474365,1.0,0.0,,,,2.0,4.0,5,1,2027.0,4013.0,2.0,2.0,0.0,0.0,0.0,5.142450475692749,Different,Different,correct
235.0,4.228577375411987,1.0,5.0,,,,1.0,3.0,1,5,1019.0,3024.0,3.0,2.0,1.0,5.0,5.0,5.236305809020996,Different,Different,correct
236.0,4.6959309577941895,1.0,0.0,,,,1.0,2.0,5,5,1027.0,2028.0,1.0,2.0,0.0,0.0,0.0,5.505673885345459,Different,Same,correct
237.0,3.0080201625823975,1.0,5.0,,,,4.0,4.0,5,5,4022.0,4024.0,4.0,2.0,1.0,5.0,5.0,5.501990532875061,Same,Same,correct
238.0,2.063297748565674,1.0,1.0,,,,3.0,3.0,1,1,3014.0,3012.0,3.0,1.0,1.0,1.0,1.0,5.442903828620911,Same,Same,correct
239.0,2.601245880126953,1.0,5.0,,,,3.0,3.0,5,1,3025.0,3019.0,3.0,1.0,1.0,5.0,5.0,5.28863205909729,Same,Different,correct
240.0,1.9622116088867188,0.0,1.0,,,,3.0,2.0,1,1,3014.0,2017.0,2.0,1.0,0.0,0.0,0.0,3.6282508850097654,Different,Same,swap error
241.0,1.3515076637268066,0.0,1.0,,,,2.0,4.0,1,5,2018.0,4025.0,2.0,2.0,0.0,0.0,0.0,3.1757646083831785,Different,Different,swap error
242.0,2.155210494995117,1.0,5.0,,,,1.0,1.0,1,5,1017.0,1028.0,1.0,2.0,1.0,5.0,5.0,3.0943439960479737,Same,Different,correct
243.0,22.382803916931152,0.0,5.0,,,,3.0,1.0,1,1,3018.0,1014.0,3.0,1.0,1.0,1.0,1.0,4.912379717826843,Different,Same,unspecified
244.0,2.496445655822754,0.0,1.0,,,,4.0,2.0,5,1,4027.0,2016.0,2.0,1.0,0.0,0.0,0.0,4.694525146484375,Different,Different,swap error
245.0,2.980105400085449,1.0,1.0,,,,3.0,3.0,5,1,3029.0,3015.0,3.0,2.0,1.0,1.0,1.0,4.569677948951721,Same,Different,correct
246.0,2.4831366539001465,1.0,1.0,,,,4.0,2.0,5,1,4027.0,2018.0,2.0,2.0,1.0,1.0,1.0,4.348398518562317,Different,Different,correct
247.0,1.870394229888916,1.0,5.0,,,,4.0,2.0,1,5,4019.0,2028.0,2.0,2.0,1.0,5.0,5.0,4.234635925292968,Different,Different,correct
248.0,2.295862913131714,1.0,1.0,,,,1.0,3.0,1,5,1014.0,3028.0,1.0,1.0,1.0,1.0,1.0,4.257892441749573,Different,Different,correct
249.0,7.5582475662231445,0.0,5.0,,,,4.0,1.0,1,1,4012.0,1017.0,4.0,1.0,1.0,1.0,1.0,4.753592610359192,Different,Same,unspecified
250.0,1.7575559616088867,1.0,5.0,,,,1.0,4.0,5,1,1021.0,4015.0,1.0,1.0,1.0,5.0,5.0,4.7331270456314085,Different,Different,correct
251.0,4.3080832958221436,0.0,1.0,,,,1.0,3.0,5,1,1021.0,3011.0,1.0,1.0,1.0,5.0,5.0,5.028784608840942,Different,Different,other error
252.0,2.191895008087158,1.0,1.0,,,,4.0,4.0,1,1,4015.0,4014.0,4.0,2.0,1.0,1.0,1.0,5.0324530601501465,Same,Same,correct
253.0,2.0975306034088135,1.0,5.0,,,,4.0,3.0,5,1,4028.0,3013.0,4.0,1.0,1.0,5.0,5.0,3.0039257287979124,Different,Different,correct
254.0,2.2622334957122803,1.0,1.0,,,,2.0,2.0,1,5,2011.0,2021.0,2.0,1.0,1.0,1.0,1.0,2.9805045127868652,Same,Different,correct
255.0,2.255061388015747,1.0,1.0,,,,1.0,2.0,1,1,1012.0,2018.0,1.0,1.0,1.0,1.0,1.0,2.908000111579895,Different,Same,correct
256.0,22.056346654891968,0.0,1.0,,,,3.0,2.0,1,5,3011.0,2021.0,2.0,1.0,0.0,0.0,0.0,4.865321111679077,Different,Different,other error
257.0,3.1041276454925537,0.0,0.0,,,,3.0,2.0,5,1,3021.0,2012.0,2.0,2.0,1.0,1.0,1.0,4.988694453239441,Different,Different,swap error
258.0,9.774558544158936,0.0,0.0,,,,2.0,2.0,5,1,2022.0,2017.0,2.0,1.0,1.0,5.0,5.0,5.736564016342163,Same,Different,same category
259.0,1.7133417129516602,1.0,5.0,,,,2.0,4.0,5,1,2025.0,4015.0,2.0,1.0,1.0,5.0,5.0,5.1520734310150145,Different,Different,correct
260.0,3.7752444744110107,1.0,0.0,,,,3.0,4.0,1,1,3015.0,4019.0,3.0,2.0,0.0,0.0,0.0,5.353842282295227,Different,Same,correct
261.0,14.854158878326416,0.0,5.0,,,,1.0,2.0,5,1,1029.0,2013.0,2.0,2.0,1.0,1.0,1.0,6.4084498405456545,Different,Different,other error
262.0,1.9363396167755127,1.0,1.0,,,,3.0,4.0,5,1,3021.0,4013.0,4.0,2.0,1.0,1.0,1.0,6.38289430141449,Different,Different,correct
263.0,3.195227861404419,1.0,0.0,,,,2.0,3.0,5,1,2026.0,3014.0,2.0,2.0,0.0,0.0,0.0,6.49266402721405,Different,Different,correct
264.0,4.083925485610962,1.0,1.0,,,,4.0,2.0,1,1,4013.0,2011.0,2.0,2.0,1.0,1.0,1.0,6.674833226203918,Different,Same,correct
265.0,5.953852891921997,1.0,0.0,,,,4.0,4.0,1,5,4015.0,4027.0,1.0,1.0,0.0,0.0,0.0,7.044712376594544,Same,Different,correct
266.0,3.4419353008270264,1.0,0.0,,,,1.0,1.0,1,5,1019.0,1025.0,4.0,1.0,0.0,0.0,0.0,5.1832712411880495,Same,Different,correct
267.0,5.650890350341797,1.0,0.0,,,,1.0,3.0,5,1,1023.0,3015.0,1.0,2.0,0.0,0.0,0.0,5.437947511672974,Different,Different,correct
268.0,2.9866082668304443,1.0,0.0,,,,3.0,1.0,5,5,3021.0,1029.0,1.0,1.0,0.0,0.0,0.0,4.759152483940125,Different,Same,correct
269.0,4.126069068908691,0.0,1.0,,,,3.0,3.0,5,1,3027.0,3016.0,3.0,1.0,1.0,5.0,5.0,5.000425219535828,Same,Different,same category
270.0,5.498976469039917,0.0,0.0,,,,1.0,2.0,5,1,1023.0,2013.0,2.0,2.0,1.0,1.0,1.0,5.172798418998719,Different,Different,swap error
271.0,3.3209097385406494,1.0,0.0,,,,1.0,1.0,1,5,1014.0,1028.0,4.0,1.0,0.0,0.0,0.0,4.019473505020142,Same,Different,correct
272.0,3.044628620147705,1.0,1.0,,,,1.0,1.0,1,1,1016.0,1012.0,1.0,1.0,1.0,1.0,1.0,4.1303024053573605,Same,Same,correct
273.0,7.557013273239136,1.0,0.0,,,,2.0,2.0,1,5,2019.0,2024.0,3.0,2.0,0.0,0.0,0.0,4.566480946540833,Same,Different,correct
274.0,2.117276191711426,1.0,5.0,,,,2.0,2.0,5,1,2023.0,2014.0,2.0,1.0,1.0,5.0,5.0,4.369816017150879,Same,Different,correct
275.0,0.7631874084472656,1.0,1.0,,,,2.0,2.0,1,1,2014.0,2012.0,2.0,2.0,1.0,1.0,1.0,3.850749468803406,Same,Same,correct
276.0,2.614837646484375,1.0,1.0,,,,2.0,3.0,1,5,2012.0,3029.0,2.0,1.0,1.0,1.0,1.0,3.7680397033691406,Different,Different,correct
277.0,5.298955202102661,0.0,0.0,,,,4.0,1.0,1,5,4015.0,1025.0,4.0,1.0,1.0,1.0,1.0,3.732846188545227,Different,Different,swap error
278.0,2.8969688415527344,1.0,1.0,,,,3.0,1.0,1,1,3015.0,1011.0,1.0,2.0,1.0,1.0,1.0,3.723882246017456,Different,Same,correct
279.0,4.258432149887085,1.0,0.0,,,,3.0,2.0,5,5,3027.0,2025.0,2.0,1.0,0.0,0.0,0.0,3.7371185541152956,Different,Same,correct
280.0,3.282114267349243,1.0,1.0,,,,4.0,2.0,1,5,4018.0,2025.0,4.0,1.0,1.0,1.0,1.0,3.515432333946228,Different,Different,correct
281.0,2.848759889602661,1.0,1.0,,,,4.0,1.0,1,1,4017.0,1016.0,4.0,1.0,1.0,1.0,1.0,3.4682173490524293,Different,Same,correct
282.0,4.111528635025024,1.0,5.0,,,,2.0,3.0,5,1,2023.0,3016.0,2.0,1.0,1.0,5.0,5.0,3.574907350540161,Different,Different,correct
283.0,2.190687656402588,1.0,1.0,,,,2.0,4.0,1,1,2013.0,4012.0,2.0,1.0,1.0,1.0,1.0,3.0382747888565063,Different,Same,correct
284.0,3.167304754257202,1.0,5.0,,,,1.0,4.0,5,1,1021.0,4016.0,1.0,1.0,1.0,5.0,5.0,3.143277645111084,Different,Different,correct
285.0,3.683011531829834,0.0,0.0,,,,3.0,1.0,1,5,3019.0,1029.0,1.0,2.0,1.0,5.0,5.0,3.435260057449341,Different,Different,swap error
286.0,2.7278873920440674,0.0,1.0,,,,3.0,3.0,5,1,3028.0,3011.0,3.0,1.0,1.0,5.0,5.0,3.44656503200531,Same,Different,same category
287.0,2.0061118602752686,1.0,1.0,,,,3.0,1.0,5,1,3029.0,1017.0,1.0,2.0,1.0,1.0,1.0,3.117280697822571,Different,Different,correct
288.0,8.946706771850586,0.0,1.0,,,,1.0,4.0,1,1,1011.0,4019.0,1.0,2.0,0.0,0.0,0.0,3.722254490852356,Different,Same,swap error
