first_cat,second_cat,probe_pic,probe_validity,thisN,thisTrialN,thisRepN,key_resp1.keys,key_resp1.rt,key_resp1.duration,trials.thisRepN,trials.thisTrialN,trials.thisN,trials.thisIndex,thisRow.t,notes,options,Instructions.started,startKey.started,instructionstxt.started,Instructions.stopped,pic1,pic2,probe_text,trial.started,fixation.started,stim1.started,fixation.stopped,stim1.stopped,delay1.started,delay1.stopped,stim2.started,stim2.stopped,delay2.started,delay2.stopped,probe.started,option1.started,option2.started,option3.started,key_resp1.started,trial.stopped,trials.key_resp1.keys,trials.key_resp1.rt,trials.key_resp1.duration,participant,session,date,expName,psychopyVersion,expStart,
,,,,,,,,,,,,,,,,"[' 0 ', ' 1 ', ' 5 ']",0.01561454100010451,0.040371125000092434,0.040371125000092434,0.6097654160003003,,,,,,,,,,,,,,,,,,,,,,,,761261,001,2024-12-19_13h41.04.834,test,2024.2.4,2024-12-19 13h41.27.102294 -0800,
4,2,1,1,0,0,0,right,2.6228042090006056,None,0,0,0,90,0.6548408329999802,,,,,,,stimuli/Car/28.jpg,stimuli/Animal/19.jpg,"In the first picture, how many cars were there?",0.6468670409994957,0.6548408329999802,1.6019022500004212,1.646329916000468,2.6020177909995255,2.6092282499994326,3.6092680000001565,3.6092680000001565,4.600344541000595,4.600344541000595,7.10207495800023,7.10207495800023,7.10207495800023,7.10207495800023,7.10207495800023,7.10207495800023,9.726308166000308,right,2.6228042090006056,None,761261,001,2024-12-19_13h41.04.834,test,2024.2.4,2024-12-19 13h41.27.102294 -0800,
4,1,1,1,1,1,0,up,2.053146291000303,None,0,1,1,56,9.780795458000284,,,,,,,stimuli/Car/11.jpg,stimuli/Person/10.jpg,"In the first picture, how many cars were there?",9.757514832999732,9.780795458000284,10.727030707999802,10.774386582999796,11.726974708000853,11.726974708000853,12.726879290999932,12.726879290999932,13.718643500000326,13.718643500000326,16.210280416000387,16.216967458,16.216967458,16.216967458,16.216967458,16.216967458,18.270972708000045,up,2.053146291000303,None,761261,001,2024-12-19_13h41.04.834,test,2024.2.4,2024-12-19 13h41.27.102294 -0800,
1,4,1,1,2,2,0,up,1.5360759169998346,None,0,2,2,70,18.30458862500018,,,,,,,stimuli/Person/12.jpg,stimuli/Car/17.jpg,"In the first picture, how many people were there?",18.300715708001007,18.30458862500018,19.268594290999317,19.302009499999258,20.26884195800085,20.26884195800085,21.26859229100046,21.26859229100046,22.268643290999535,22.268643290999535,24.760232250000627,24.767132540999228,24.767132540999228,24.767132540999228,24.767132540999228,24.767132540999228,26.312852582999767,up,1.5360759169998346,None,761261,001,2024-12-19_13h41.04.834,test,2024.2.4,2024-12-19 13h41.27.102294 -0800,
3,2,1,1,3,3,0,right,3.479087541998524,None,0,3,3,50,26.353591290999248,,,,,,,stimuli/Food/21.jpg,stimuli/Animal/14.jpg,"In the first picture, how many food items were there?",26.34755212500022,26.353591290999248,27.309640125000442,27.348605540999415,28.30193195799984,28.307953833000283,29.307643457999802,29.307643457999802,30.310607416000494,30.310607416000494,32.799469457999294,32.80674141599957,32.80674141599957,32.80674141599957,32.80674141599957,32.80674141599957,36.29074199999923,right,3.479087541998524,None,761261,001,2024-12-19_13h41.04.834,test,2024.2.4,2024-12-19 13h41.27.102294 -0800,
4,3,2,1,4,4,0,up,5.262434457999916,None,0,4,4,61,36.32192450000002,,,,,,,stimuli/Car/25.jpg,stimuli/Food/10.jpg,"In the second picture, how many food items were there?",36.31866429100046,36.32192450000002,37.28248812499987,37.31576604099973,38.27423366599942,38.279924750000646,39.27120029099933,39.29381212500084,40.293570375000854,40.27934137500051,42.776875333000135,42.784100416,42.784100416,42.784100416,42.784100416,42.784100416,48.048750915999335,up,5.262434457999916,None,761261,001,2024-12-19_13h41.04.834,test,2024.2.4,2024-12-19 13h41.27.102294 -0800,
2,3,1,1,5,5,0,up,3.936873958000433,None,0,5,5,44,48.0815407909995,,,,,,,stimuli/Animal/15.jpg,stimuli/Food/20.jpg,"In the first picture, how many animals were there?",48.07809233300031,48.0815407909995,49.042465374999665,49.07711341600043,50.03509225000016,50.04050491599992,51.04239595800027,51.04239595800027,52.03541304099963,52.041586249999455,54.542413040999236,54.542413040999236,54.542413040999236,54.542413040999236,54.542413040999236,54.542413040999236,58.48601529100051,up,3.936873958000433,None,761261,001,2024-12-19_13h41.04.834,test,2024.2.4,2024-12-19 13h41.27.102294 -0800,
1,3,1,0,6,6,0,right,1.1137600830006704,None,0,6,6,4,58.522931999999855,,,,,,,stimuli/Person/26.jpg,stimuli/Food/24.jpg,"In the first picture, how many food items were there?",58.51872641599948,58.522931999999855,59.47493470799964,59.51297229100055,60.466027041000416,60.48514604100092,61.48514308300037,61.48514308300037,62.476728249999724,62.476728249999724,64.97569579099945,64.97569579099945,64.97569579099945,64.97569579099945,64.97569579099945,64.97569579099945,66.09568941600082,right,1.1137600830006704,None,761261,001,2024-12-19_13h41.04.834,test,2024.2.4,2024-12-19 13h41.27.102294 -0800,
2,2,2,1,7,7,0,right,2.937162583000827,None,0,7,7,75,66.12725095799942,,,,,,,stimuli/Animal/23.jpg,stimuli/Animal/13.jpg,"In the second picture, how many animals were there?",66.12387137500082,66.12725095799942,67.08421383300083,67.11750979099997,68.08121116599978,68.08713750000061,69.07839679099925,69.0839732910008,70.08120212500035,70.08728354100094,72.57781712500037,72.59758337499989,72.59758337499989,72.59758337499989,72.59758337499989,72.59758337499989,75.54189645800034,right,2.937162583000827,None,761261,001,2024-12-19_13h41.04.834,test,2024.2.4,2024-12-19 13h41.27.102294 -0800,
4,4,2,1,8,8,0,right,0.682995082999696,None,0,8,8,63,75.57369016600023,,,,,,,stimuli/Car/20.jpg,stimuli/Car/25.jpg,"In the second picture, how many cars were there?",75.57022362499993,75.57369016600023,76.53913329100033,76.5725607910008,77.5391917500001,77.5391917500001,78.52802424999936,78.53366950000054,79.53081008300069,79.53936933300065,82.03927300000032,82.03927300000032,82.03927300000032,82.03927300000032,82.03927300000032,82.03927300000032,82.72716274999948,right,0.682995082999696,None,761261,001,2024-12-19_13h41.04.834,test,2024.2.4,2024-12-19 13h41.27.102294 -0800,
3,3,2,1,9,9,0,right,2.0294700829999783,None,0,9,9,53,82.75429170800089,,,,,,,stimuli/Food/11.jpg,stimuli/Food/27.jpg,"In the second picture, how many food items were there?",82.75082641600056,82.75429170800089,83.71733950000089,83.74478437499965,84.71193691600092,84.71720791600092,85.71398412500093,85.72021975000098,86.71416170799966,86.72013062500082,89.20878133299993,89.22978112500095,89.22978112500095,89.22978112500095,89.22978112500095,89.22978112500095,91.26413212499938,right,2.0294700829999783,None,761261,001,2024-12-19_13h41.04.834,test,2024.2.4,2024-12-19 13h41.27.102294 -0800,
3,4,1,0,10,10,0,left,5.618066582999745,None,0,10,10,22,91.32102400000076,,,,,,,stimuli/Food/18.jpg,stimuli/Car/23.jpg,"In the first picture, how many cars were there?",91.31783575000009,91.32102400000076,92.26411924999957,92.31159787499928,93.2531761249993,93.2531761249993,94.25475591599934,94.25475591599934,95.24503329099934,95.2641609580005,97.7630657080008,97.7630657080008,97.7630657080008,97.7630657080008,97.7630657080008,97.7630657080008,103.38381254100022,left,5.618066582999745,None,761261,001,2024-12-19_13h41.04.834,test,2024.2.4,2024-12-19 13h41.27.102294 -0800,
2,1,1,1,11,11,0,right,0.8441185840001708,None,0,11,11,40,103.42328400000042,,,,,,,stimuli/Animal/18.jpg,stimuli/Person/14.jpg,"In the first picture, how many animals were there?",103.41893045799952,103.42328400000042,104.37914304100013,104.41132962499978,105.38069654100036,105.38069654100036,106.36974687499969,106.37536804100091,107.37247029100035,107.37810912500026,109.87272191600096,109.87957241600088,109.87957241600088,109.87957241600088,109.87957241600088,109.87957241600088,110.7247470000002,right,0.8441185840001708,None,761261,001,2024-12-19_13h41.04.834,test,2024.2.4,2024-12-19 13h41.27.102294 -0800,
2,4,2,0,12,12,0,up,1.2495989160015597,None,0,12,12,15,110.76016254100068,,,,,,,stimuli/Animal/23.jpg,stimuli/Car/25.jpg,"In the second picture, how many animals were there?",110.75680870799988,110.76016254100068,111.72238208300041,111.76437562499996,112.71442304099946,112.71993633300008,113.70991154100011,113.71636458300054,114.71406750000097,114.72247241600053,117.22248762500021,117.22248762500021,117.22248762500021,117.22248762500021,117.22248762500021,117.22248762500021,118.47509300000092,up,1.2495989160015597,None,761261,001,2024-12-19_13h41.04.834,test,2024.2.4,2024-12-19 13h41.27.102294 -0800,
4,3,1,0,13,13,0,right,3.4414410419994965,None,0,13,13,28,118.51056391599923,,,,,,,stimuli/Car/18.jpg,stimuli/Food/26.jpg,"In the first picture, how many food items were there?",118.5072181659998,118.51056391599923,119.46707704099936,119.50024566600041,120.46411612500015,120.47244141600095,121.46418925000035,121.46957645799921,122.47236583300037,122.47236583300037,124.97244562500055,124.97244562500055,124.97244562500055,124.97244562500055,124.97244562500055,124.97244562500055,128.41908074999992,right,3.4414410419994965,None,761261,001,2024-12-19_13h41.04.834,test,2024.2.4,2024-12-19 13h41.27.102294 -0800,
3,2,1,1,14,14,0,right,0.6177050000005693,None,0,14,14,82,128.4517609579998,,,,,,,stimuli/Food/12.jpg,stimuli/Animal/23.jpg,"In the first picture, how many food items were there?",128.44837104100043,128.4517609579998,129.42125979100092,129.45304420799948,130.41239250000035,130.41239250000035,131.41408650000085,131.42140866599948,132.41328370799965,132.41328370799965,134.90307304099952,134.90942133300086,134.90942133300086,134.90942133300086,134.90942133300086,134.90942133300086,135.53326133299925,right,0.6177050000005693,None,761261,001,2024-12-19_13h41.04.834,test,2024.2.4,2024-12-19 13h41.27.102294 -0800,
1,1,2,1,15,15,0,right,0.7838690000007773,None,0,15,15,33,135.56683154100028,,,,,,,stimuli/Person/27.jpg,stimuli/Person/16.jpg,"In the second picture, how many people were there?",135.5617677499995,135.56683154100028,136.5261037500004,136.5589626660003,137.5213327500005,137.52695112500078,138.5295984580007,138.5295984580007,139.519832375001,139.52540220800074,142.0168784159996,142.03072299999985,142.03072299999985,142.03072299999985,142.03072299999985,142.03072299999985,142.81677883299926,right,0.7838690000007773,None,761261,001,2024-12-19_13h41.04.834,test,2024.2.4,2024-12-19 13h41.27.102294 -0800,
2,4,2,1,16,16,0,up,1.2539519580004708,None,0,16,16,79,142.84937499999978,,,,,,,stimuli/Animal/24.jpg,stimuli/Car/19.jpg,"In the second picture, how many cars were there?",142.84587579099934,142.84937499999978,143.81293949999963,143.8476947500003,144.81428212500032,144.81428212500032,145.81402337500003,145.81402337500003,146.814230375001,146.814230375001,149.30313391600066,149.31056658300076,149.31056658300076,149.31056658300076,149.31056658300076,149.31056658300076,150.56665116600016,up,1.2539519580004708,None,761261,001,2024-12-19_13h41.04.834,test,2024.2.4,2024-12-19 13h41.27.102294 -0800,
4,2,2,0,17,17,0,left,1.1860480830000597,None,0,17,17,27,150.59760624999944,,,,,,,stimuli/Car/29.jpg,stimuli/Animal/10.jpg,"In the second picture, how many cars were there?",150.59413895800026,150.59760624999944,151.56184358300015,151.58934179099924,152.563870416001,152.563870416001,153.5640929580004,153.5640929580004,154.55324850000034,154.55865054099922,157.05321712499972,157.06025270800092,157.06025270800092,157.06025270800092,157.06025270800092,157.06025270800092,158.24897829099973,left,1.1860480830000597,None,761261,001,2024-12-19_13h41.04.834,test,2024.2.4,2024-12-19 13h41.27.102294 -0800,
2,3,1,1,18,18,0,right,0.5134500839994871,None,0,18,18,76,158.2826001249996,,,,,,,stimuli/Animal/13.jpg,stimuli/Food/27.jpg,"In the first picture, how many animals were there?",158.27918183300062,158.2826001249996,159.24191754099957,159.27494541600026,160.23885062500085,160.24744458299938,161.2379565829997,161.244374625001,162.23533104099988,162.24117983299948,164.73923241600096,164.74652020800022,164.74652020800022,164.74652020800022,164.74652020800022,164.74652020800022,165.26491066600101,right,0.5134500839994871,None,761261,001,2024-12-19_13h41.04.834,test,2024.2.4,2024-12-19 13h41.27.102294 -0800,
2,2,2,1,19,19,0,up,0.32776525000008405,None,0,19,19,43,165.29560645799938,,,,,,,stimuli/Animal/26.jpg,stimuli/Animal/27.jpg,"In the second picture, how many animals were there?",165.29225491599937,165.29560645799938,166.26373895799952,166.2973086660004,167.25554404099967,167.26110354100092,168.25545016599972,168.2614708330002,169.250255166,169.26391687499927,171.75443054099924,171.75443054099924,171.75443054099924,171.75443054099924,171.75443054099924,171.75443054099924,172.08575941600066,up,0.32776525000008405,None,761261,001,2024-12-19_13h41.04.834,test,2024.2.4,2024-12-19 13h41.27.102294 -0800,
1,4,1,1,20,20,0,right,0.9378549579996616,None,0,20,20,38,172.11501516600038,,,,,,,stimuli/Person/16.jpg,stimuli/Car/11.jpg,"In the first picture, how many people were there?",172.11157170799925,172.11501516600038,173.07942841600016,173.11425966599927,174.0805409580007,174.08911229099976,175.0783678330008,175.0783678330008,176.0695996659997,176.07512470800066,178.57240983299926,178.57927166599984,178.57927166599984,178.57927166599984,178.57927166599984,178.57927166599984,179.51901112499945,right,0.9378549579996616,None,761261,001,2024-12-19_13h41.04.834,test,2024.2.4,2024-12-19 13h41.27.102294 -0800,
2,1,1,1,21,21,0,left,0.5636549159989954,None,0,21,21,72,179.5499230410005,,,,,,,stimuli/Animal/29.jpg,stimuli/Person/29.jpg,"In the first picture, how many animals were there?",179.54647275000025,179.5499230410005,180.51087808299962,180.5444623330004,181.51374429099997,181.51374429099997,182.50572341599946,182.51136191600017,183.50002962500002,183.52212862499982,186.01274808299968,186.01274808299968,186.01274808299968,186.01274808299968,186.01274808299968,186.01274808299968,186.58270216600067,left,0.5636549159989954,None,761261,001,2024-12-19_13h41.04.834,test,2024.2.4,2024-12-19 13h41.27.102294 -0800,
4,1,2,0,22,22,0,right,1.3547812090000662,None,0,22,22,25,186.61612158299977,,,,,,,stimuli/Car/28.jpg,stimuli/Person/10.jpg,"In the second picture, how many cars were there?",186.61260425,186.61612158299977,187.5743903750008,187.60830212499968,188.56660616599947,188.58043075000023,189.57206566599962,189.57851804100028,190.56988124999953,190.5757015830004,193.07214258299973,193.0794271249997,193.0794271249997,193.0794271249997,193.0794271249997,193.0794271249997,194.43679329100087,right,1.3547812090000662,None,761261,001,2024-12-19_13h41.04.834,test,2024.2.4,2024-12-19 13h41.27.102294 -0800,
4,4,2,0,23,23,0,left,2.584826082998916,None,0,23,23,31,194.49746050000067,,,,,,,stimuli/Car/12.jpg,stimuli/Car/23.jpg,"In the second picture, how many people were there?",194.49420762500085,194.49746050000067,195.42471237499922,195.48621850000018,196.4220277910008,196.42727412500062,197.4199311249995,197.42575670800034,198.4221594999999,198.4293155409996,200.9223949999996,200.92956041599973,200.92956041599973,200.92956041599973,200.92956041599973,200.92956041599973,203.52471879100085,left,2.584826082998916,None,761261,001,2024-12-19_13h41.04.834,test,2024.2.4,2024-12-19 13h41.27.102294 -0800,
1,4,1,0,24,24,0,,,,0,24,24,6,203.56069741600004,,,,,,,stimuli/Person/20.jpg,stimuli/Car/16.jpg,"In the first picture, how many cars were there?",203.5572916250003,203.56069741600004,204.51704345799953,204.55051666600048,205.51406133300043,205.52016170800016,,,,,,,,,,,,,,,,,,,,,
